* Measurement data measured by REW V5.20.13
* Source: C:\Users\marcu\OneDrive\Desktop\audio_db\KBear Pecker Foam R.txt
* Format: Comma/Tab/Space delimited data
* Dated: Jul 16, 2023 7:40:05 PM
* REW Settings:
*  C-weighting compensation: Off
*  Target level: 75.0 dB
* Note: ; Measurement imported from C:\Users\marcu\OneDrive\Desktop\audio_db\KBear Pecker Foam R.txt Format: Comma/Tab/Space delimited data 54613 values loaded, 0 Hz to 20,000 Hz 
* Measurement: KBear Pecker Foam R
* Smoothing: None
* Frequency Step: 1/48 octave
* Start Frequency: 1.000 Hz
*
* Freq(Hz)	SPL(dB)	Phase(degrees)
1.000000	67.988	-63.3422
1.015000	67.812	-64.2302
1.030000	67.629	-65.1078
1.044000	67.451	-65.9168
1.060000	67.239	-66.8286
1.075000	67.032	-67.6702
1.090000	66.815	-68.4981
1.106000	66.575	-69.3892
1.120000	66.357	-70.3040
1.138000	66.067	-71.6735
1.150000	65.868	-72.6887
1.172000	65.491	-74.7157
1.180000	65.350	-75.4941
1.206000	64.879	-78.1169
1.220000	64.618	-79.5563
1.241000	64.215	-81.6976
1.250000	64.039	-82.5946
1.265000	63.741	-84.0430
1.280000	63.437	-85.4120
1.315000	62.708	-88.1628
1.320000	62.602	-88.4920
1.340000	62.171	-89.6138
1.360000	61.733	-90.3807
1.380000	61.287	-90.7356
1.400000	60.834	-90.6216
1.430000	60.142	-89.4466
1.450000	59.674	-87.9106
1.475000	59.072	-85.0078
1.500000	58.376	-80.6951
1.525000	57.589	-75.0864
1.550000	56.732	-68.3915
1.575000	55.829	-60.8199
1.600000	54.903	-52.5816
1.625000	53.976	-43.8862
1.650000	53.072	-34.9434
1.675000	52.214	-25.9630
1.700000	51.424	-17.1547
1.725000	50.725	-8.7282
1.750000	50.140	-0.8934
1.775000	49.693	6.1402
1.800000	49.406	12.1628
1.825000	49.301	16.9646
1.850000	49.406	20.5541
1.875000	49.727	23.3842
1.900000	50.235	25.5429
1.925000	50.902	27.0988
1.950000	51.701	28.1204
1.975000	52.603	28.6762
2.000000	53.579	28.8348
2.030000	54.811	28.5972
2.060000	56.060	28.0046
2.090000	57.280	27.1755
2.120000	58.420	26.2283
2.140000	59.112	25.5897
2.180000	60.269	24.4532
2.200000	60.705	24.0227
2.240000	61.407	22.9271
2.270000	61.839	21.7641
2.300000	62.200	20.3553
2.330000	62.501	18.7428
2.360000	62.749	16.9687
2.400000	63.017	14.4246
2.430000	63.182	12.4371
2.470000	63.373	9.7614
2.500000	63.507	7.7897
2.540000	63.689	5.2879
2.580000	63.891	2.9918
2.620000	64.065	0.7052
2.650000	64.172	-1.0322
2.690000	64.286	-3.3672
2.720000	64.353	-5.1243
2.760000	64.420	-7.4634
2.800000	64.465	-9.7849
2.850000	64.498	-12.6400
2.900000	64.513	-15.4167
2.950000	64.516	-18.0990
3.000000	64.488	-20.7676
3.040000	64.444	-22.8895
3.070000	64.400	-24.4623
3.110000	64.328	-26.5209
3.150000	64.244	-28.5200
3.200000	64.124	-30.9095
3.250000	63.994	-33.1466
3.300000	63.858	-35.1986
3.350000	63.701	-37.1194
3.400000	63.517	-38.9430
3.450000	63.317	-40.6416
3.500000	63.109	-42.1871
3.550000	62.904	-43.5516
3.600000	62.710	-44.7072
3.650000	62.538	-45.6258
3.700000	62.383	-46.2648
3.750000	62.221	-46.6054
3.820000	62.001	-46.6872
3.870000	61.863	-46.5419
3.950000	61.707	-46.1169
4.000000	61.665	-45.8210
4.060000	61.688	-45.4651
4.120000	61.783	-44.8654
4.180000	61.937	-44.1058
4.250000	62.173	-43.2024
4.310000	62.410	-42.5721
4.370000	62.667	-42.2210
4.440000	62.992	-42.2712
4.500000	63.320	-42.5740
4.550000	63.618	-42.9797
4.620000	64.054	-43.7528
4.680000	64.426	-44.5787
4.750000	64.832	-45.6973
4.820000	65.206	-47.0236
4.870000	65.470	-48.1442
4.940000	65.831	-49.8853
5.000000	66.127	-51.4730
5.080000	66.494	-53.6187
5.150000	66.784	-55.4366
5.220000	67.046	-57.3078
5.300000	67.316	-59.5070
5.380000	67.557	-61.6854
5.450000	67.749	-63.5040
5.520000	67.923	-65.1897
5.600000	68.093	-67.0327
5.700000	68.269	-69.2011
5.800000	68.421	-71.1493
5.900000	68.566	-72.8069
6.000000	68.687	-74.1791
6.080000	68.773	-75.1017
6.150000	68.851	-75.7997
6.220000	68.938	-76.4109
6.300000	69.046	-76.9697
6.400000	69.187	-77.4438
6.500000	69.341	-77.7888
6.600000	69.514	-78.1332
6.700000	69.712	-78.4424
6.800000	69.929	-78.6997
6.900000	70.154	-78.9985
7.000000	70.380	-79.4210
7.100000	70.616	-79.9367
7.200000	70.855	-80.5265
7.300000	71.083	-81.1867
7.400000	71.295	-81.9297
7.500000	71.497	-82.7649
7.620000	71.723	-83.8184
7.750000	71.939	-84.9445
7.880000	72.124	-86.0985
8.000000	72.274	-87.1325
8.120000	72.409	-88.0744
8.250000	72.532	-89.0171
8.380000	72.643	-89.8757
8.500000	72.743	-90.5774
8.620000	72.836	-91.1893
8.750000	72.937	-91.7983
8.850000	73.018	-92.2506
9.000000	73.143	-92.8716
9.120000	73.244	-93.3682
9.250000	73.356	-93.9443
9.380000	73.469	-94.5396
9.500000	73.571	-95.1186
9.620000	73.670	-95.7383
9.750000	73.775	-96.4477
9.880000	73.864	-97.1751
10.000000	73.927	-97.8596
10.150000	73.987	-98.7335
10.300000	74.035	-99.5926
10.440000	74.066	-100.3801
10.600000	74.096	-101.2636
10.750000	74.125	-102.0675
10.900000	74.152	-102.8545
11.060000	74.182	-103.6934
11.200000	74.210	-104.4241
11.380000	74.247	-105.3739
11.500000	74.272	-106.0190
11.720000	74.316	-107.2137
11.800000	74.331	-107.6512
12.060000	74.377	-109.0766
12.200000	74.398	-109.8288
12.410000	74.431	-110.9366
12.500000	74.452	-111.3987
12.650000	74.496	-112.1517
12.800000	74.544	-112.8895
13.150000	74.665	-114.5633
13.200000	74.683	-114.8003
13.400000	74.756	-115.7455
13.600000	74.828	-116.6842
13.800000	74.897	-117.6194
14.000000	74.962	-118.5305
14.300000	75.051	-119.8394
14.500000	75.106	-120.6527
14.750000	75.173	-121.6058
15.000000	75.241	-122.4932
15.250000	75.310	-123.3419
15.500000	75.378	-124.1718
15.750000	75.442	-124.9904
16.000000	75.501	-125.7975
16.250000	75.557	-126.5721
16.500000	75.610	-127.3053
16.750000	75.657	-127.9844
17.000000	75.704	-128.6236
17.250000	75.751	-129.2398
17.500000	75.800	-129.8569
17.750000	75.847	-130.4994
18.000000	75.891	-131.1675
18.250000	75.928	-131.8603
18.500000	75.957	-132.5551
18.750000	75.980	-133.2378
19.000000	75.997	-133.8955
19.250000	76.013	-134.5231
19.500000	76.031	-135.1290
19.750000	76.050	-135.7199
20.000000	76.072	-136.3095
20.299999	76.101	-137.0223
20.600000	76.134	-137.7445
20.900000	76.166	-138.4748
21.200001	76.199	-139.2089
21.400000	76.220	-139.6977
21.799999	76.258	-140.6632
22.000000	76.275	-141.1324
22.400000	76.307	-142.0250
22.700001	76.331	-142.6433
23.000000	76.356	-143.2191
23.299999	76.385	-143.7704
23.600000	76.416	-144.3177
24.000000	76.458	-145.0654
24.299999	76.485	-145.6386
24.700001	76.510	-146.3896
25.000000	76.521	-146.9140
25.400000	76.533	-147.5402
25.799999	76.548	-148.1027
26.200001	76.569	-148.6578
26.500000	76.587	-149.1022
26.900000	76.608	-149.7463
27.200001	76.618	-150.2539
27.600000	76.621	-150.9235
28.000000	76.617	-151.5384
28.500000	76.616	-152.2088
29.000000	76.630	-152.8343
29.500000	76.660	-153.5105
30.000000	76.690	-154.2718
30.400000	76.706	-154.9042
30.700001	76.715	-155.3632
31.100000	76.722	-155.9317
31.500000	76.730	-156.4509
32.000000	76.744	-157.0559
32.500000	76.760	-157.6413
33.000000	76.775	-158.2170
33.500000	76.788	-158.7817
34.000000	76.796	-159.3310
34.500000	76.799	-159.8563
35.000000	76.802	-160.3524
35.500000	76.803	-160.8308
36.000000	76.807	-161.3120
36.500000	76.809	-161.8058
37.000000	76.808	-162.3084
37.500000	76.806	-162.8141
38.200001	76.795	-163.4955
38.700001	76.785	-163.9201
39.500000	76.788	-164.4940
40.000000	76.807	-164.8957
40.599998	76.830	-165.5111
41.200001	76.832	-166.1882
41.799999	76.816	-166.7743
42.500000	76.800	-167.3060
43.099998	76.798	-167.7352
43.700001	76.799	-168.1965
44.400002	76.797	-168.7625
45.000000	76.791	-169.2529
45.500000	76.780	-169.6401
46.200001	76.764	-170.1061
46.799999	76.758	-170.4567
47.500000	76.762	-170.9051
48.200001	76.760	-171.4024
48.700001	76.756	-171.7484
49.400002	76.750	-172.2194
50.000000	76.744	-172.6382
50.799999	76.728	-173.1786
51.500000	76.716	-173.5931
52.200001	76.710	-173.9956
53.000000	76.706	-174.4867
53.799999	76.699	-174.9977
54.500000	76.689	-175.4267
55.200001	76.678	-175.8065
56.000000	76.671	-176.2202
57.000000	76.660	-176.7811
58.000000	76.640	-177.2902
59.000000	76.625	-177.7767
60.000000	76.608	-178.3073
60.799999	76.590	-178.7162
61.500000	76.575	-179.0495
62.200001	76.564	-179.3720
63.000000	76.556	-179.7605
64.000000	76.538	179.7207
65.000000	76.514	179.2501
66.000000	76.491	178.8085
67.000000	76.465	178.3925
68.000000	76.446	178.0095
69.000000	76.428	177.5836
70.000000	76.407	177.1606
71.000000	76.387	176.7131
72.000000	76.358	176.2850
73.000000	76.332	175.9219
74.000000	76.308	175.5460
75.000000	76.282	175.1866
76.199997	76.249	174.7725
77.500000	76.222	174.3714
78.800003	76.204	173.8648
80.000000	76.171	173.3863
81.199997	76.138	172.9796
82.500000	76.111	172.5565
83.800003	76.078	172.0972
85.000000	76.046	171.7495
86.199997	76.022	171.3348
87.500000	75.981	170.9483
88.500000	75.961	170.6855
90.000000	75.925	170.2084
91.199997	75.893	169.8825
92.500000	75.859	169.5233
93.800003	75.823	169.1698
95.000000	75.791	168.8714
96.199997	75.762	168.5568
97.500000	75.729	168.2272
98.800003	75.698	167.8896
100.000000	75.665	167.5860
101.500000	75.625	167.2312
103.000000	75.586	166.8831
104.400002	75.548	166.5536
106.000000	75.503	166.1976
107.500000	75.466	165.8696
109.000000	75.427	165.5311
110.599998	75.385	165.1830
112.000000	75.347	164.8937
113.800003	75.298	164.5494
115.000000	75.266	164.3291
117.199997	75.208	163.9201
118.000000	75.186	163.7663
120.599998	75.113	163.3170
122.000000	75.081	163.0593
124.099998	75.025	162.6754
125.000000	75.003	162.5225
126.500000	74.966	162.2859
128.000000	74.932	162.0590
131.500000	74.849	161.5345
132.000000	74.838	161.4608
134.000000	74.793	161.1633
136.000000	74.746	160.8841
138.000000	74.703	160.6032
140.000000	74.656	160.3258
143.000000	74.584	159.9602
145.000000	74.537	159.7544
147.500000	74.480	159.4548
150.000000	74.421	159.1669
152.500000	74.366	158.8888
155.000000	74.309	158.6221
157.500000	74.251	158.3648
160.000000	74.192	158.1221
162.500000	74.125	157.9059
165.000000	74.055	157.7142
167.500000	73.985	157.5110
170.000000	73.914	157.3060
172.500000	73.846	157.1191
175.000000	73.779	156.9574
177.500000	73.711	156.7658
180.000000	73.641	156.6000
182.500000	73.574	156.4371
185.000000	73.507	156.2896
187.500000	73.441	156.1591
190.000000	73.377	156.0356
192.500000	73.312	155.9117
195.000000	73.245	155.7944
197.500000	73.179	155.6913
200.000000	73.117	155.5912
203.000000	73.046	155.4831
206.000000	72.976	155.3777
209.000000	72.909	155.2803
212.000000	72.841	155.1887
214.000000	72.796	155.1500
218.000000	72.706	155.0527
220.000000	72.662	155.0028
224.000000	72.576	154.9133
227.000000	72.509	154.8807
230.000000	72.445	154.8296
233.000000	72.380	154.7801
236.000000	72.318	154.7622
240.000000	72.234	154.7606
243.000000	72.174	154.7469
247.000000	72.092	154.7284
250.000000	72.029	154.7277
254.000000	71.949	154.7431
258.000000	71.872	154.7658
262.000000	71.797	154.7803
265.000000	71.741	154.8063
269.000000	71.665	154.8728
272.000000	71.609	154.9135
276.000000	71.534	154.9825
280.000000	71.461	155.0470
285.000000	71.373	155.1451
290.000000	71.288	155.2448
295.000000	71.204	155.3604
300.000000	71.120	155.5057
304.000000	71.050	155.6076
307.000000	71.001	155.6854
311.000000	70.937	155.8002
315.000000	70.869	155.9417
320.000000	70.789	156.1176
325.000000	70.713	156.2742
330.000000	70.634	156.4549
335.000000	70.556	156.6534
340.000000	70.484	156.8535
345.000000	70.411	157.0563
350.000000	70.336	157.2558
355.000000	70.266	157.4612
360.000000	70.198	157.6925
365.000000	70.129	157.9337
370.000000	70.061	158.1804
375.000000	69.996	158.3843
382.000000	69.904	158.7282
387.000000	69.840	158.9815
395.000000	69.743	159.3749
400.000000	69.681	159.6517
406.000000	69.604	159.9819
412.000000	69.537	160.2853
418.000000	69.469	160.6111
425.000000	69.397	160.9795
431.000000	69.335	161.3058
437.000000	69.269	161.6414
444.000000	69.192	162.0221
450.000000	69.133	162.3696
455.000000	69.085	162.6597
462.000000	69.015	163.1025
468.000000	68.952	163.4687
475.000000	68.888	163.8705
482.000000	68.822	164.3034
487.000000	68.778	164.6023
494.000000	68.716	165.0324
500.000000	68.662	165.4092
508.000000	68.592	165.9055
515.000000	68.536	166.3570
522.000000	68.482	166.8041
530.000000	68.417	167.3169
538.000000	68.358	167.8304
545.000000	68.306	168.2790
552.000000	68.254	168.7385
560.000000	68.195	169.2907
570.000000	68.120	169.9802
580.000000	68.048	170.6793
590.000000	67.981	171.3879
600.000000	67.918	172.1424
608.000000	67.867	172.7462
615.000000	67.821	173.2753
622.000000	67.781	173.8065
630.000000	67.738	174.4316
640.000000	67.689	175.2386
650.000000	67.640	176.0638
660.000000	67.596	176.8411
670.000000	67.554	177.6550
680.000000	67.522	178.4760
690.000000	67.488	179.3163
700.000000	67.458	-179.8743
710.000000	67.430	-179.0382
720.000000	67.405	-178.1847
730.000000	67.382	-177.3621
740.000000	67.363	-176.5181
750.000000	67.350	-175.6676
762.000000	67.342	-174.6546
775.000000	67.331	-173.5781
788.000000	67.326	-172.4463
800.000000	67.327	-171.4064
812.000000	67.326	-170.3835
825.000000	67.332	-169.2842
838.000000	67.341	-168.1610
850.000000	67.358	-167.1622
862.000000	67.376	-166.1714
875.000000	67.403	-165.0890
885.000000	67.426	-164.2717
900.000000	67.469	-163.0504
912.000000	67.509	-162.1037
925.000000	67.559	-161.1215
938.000000	67.618	-160.1423
950.000000	67.674	-159.2467
962.000000	67.734	-158.3856
975.000000	67.805	-157.4969
988.000000	67.882	-156.6602
1000.000000	67.960	-155.9153
1015.000000	68.064	-155.0199
1030.000000	68.178	-154.1578
1044.000000	68.287	-153.4172
1060.000000	68.412	-152.6087
1075.000000	68.531	-151.9090
1090.000000	68.652	-151.2714
1106.000000	68.776	-150.6318
1120.000000	68.885	-150.0940
1138.000000	69.026	-149.4926
1150.000000	69.115	-149.1147
1172.000000	69.281	-148.4807
1180.000000	69.338	-148.2616
1206.000000	69.521	-147.6126
1220.000000	69.619	-147.3148
1241.000000	69.752	-146.8556
1250.000000	69.804	-146.6682
1265.000000	69.876	-146.3813
1280.000000	69.937	-146.1102
1315.000000	70.078	-145.4933
1320.000000	70.096	-145.4096
1340.000000	70.171	-145.0831
1360.000000	70.242	-144.7600
1380.000000	70.312	-144.4528
1400.000000	70.380	-144.1566
1430.000000	70.480	-143.7172
1450.000000	70.542	-143.4229
1475.000000	70.621	-143.0633
1500.000000	70.697	-142.7084
1525.000000	70.774	-142.3428
1550.000000	70.849	-142.0158
1575.000000	70.921	-141.6811
1600.000000	71.005	-141.3470
1625.000000	71.110	-141.0399
1650.000000	71.221	-140.7390
1675.000000	71.333	-140.4247
1700.000000	71.447	-140.1310
1725.000000	71.560	-139.8591
1750.000000	71.669	-139.6079
1775.000000	71.780	-139.3567
1800.000000	71.890	-139.1237
1825.000000	72.000	-138.8973
1850.000000	72.110	-138.6926
1875.000000	72.219	-138.4908
1900.000000	72.328	-138.3134
1925.000000	72.437	-138.1527
1950.000000	72.545	-137.9985
1975.000000	72.651	-137.8504
2000.000000	72.755	-137.7455
2030.000000	72.876	-137.6190
2060.000000	72.994	-137.5005
2090.000000	73.109	-137.4212
2120.000000	73.223	-137.3545
2140.000000	73.299	-137.3095
2180.000000	73.448	-137.2508
2200.000000	73.521	-137.2406
2240.000000	73.667	-137.2336
2270.000000	73.774	-137.2342
2300.000000	73.878	-137.2530
2330.000000	73.981	-137.2957
2360.000000	74.083	-137.3399
2400.000000	74.217	-137.4157
2430.000000	74.316	-137.4808
2470.000000	74.447	-137.5876
2500.000000	74.543	-137.6843
2540.000000	74.669	-137.8029
2580.000000	74.794	-137.9429
2620.000000	74.917	-138.0898
2650.000000	75.011	-138.2015
2690.000000	75.135	-138.3918
2720.000000	75.229	-138.5355
2760.000000	75.353	-138.7358
2800.000000	75.476	-138.9461
2850.000000	75.632	-139.2393
2900.000000	75.792	-139.5879
2950.000000	75.953	-139.9642
3000.000000	76.117	-140.4006
3040.000000	76.252	-140.7948
3070.000000	76.354	-141.1185
3110.000000	76.489	-141.5799
3150.000000	76.627	-142.1003
3200.000000	76.798	-142.8315
3250.000000	76.969	-143.6652
3300.000000	77.136	-144.6122
3350.000000	77.298	-145.6617
3400.000000	77.453	-146.8207
3450.000000	77.605	-148.0771
3500.000000	77.751	-149.4778
3550.000000	77.888	-151.0457
3600.000000	78.006	-152.7783
3650.000000	78.100	-154.6668
3700.000000	78.166	-156.6660
3750.000000	78.202	-158.7453
3820.000000	78.199	-161.7372
3870.000000	78.155	-163.8869
3950.000000	78.012	-167.2180
4000.000000	77.879	-169.1833
4060.000000	77.681	-171.3742
4120.000000	77.445	-173.3260
4180.000000	77.183	-175.0240
4250.000000	76.853	-176.6641
4310.000000	76.556	-177.7709
4370.000000	76.253	-178.5950
4440.000000	75.907	-179.2466
4500.000000	75.619	-179.5727
4550.000000	75.392	-179.7111
4620.000000	75.093	-179.7447
4680.000000	74.861	-179.6908
4750.000000	74.612	-179.6206
4820.000000	74.384	-179.6525
4870.000000	74.223	-179.7946
4940.000000	73.981	179.8361
5000.000000	73.733	179.3702
5080.000000	73.307	178.6966
5150.000000	72.833	178.3653
5220.000000	72.280	178.6411
5300.000000	71.608	-179.9771
5380.000000	70.977	-177.4849
5450.000000	70.506	-174.6582
5520.000000	70.123	-171.4925
5600.000000	69.784	-167.6817
5700.000000	69.485	-162.8628
5800.000000	69.291	-158.0681
5900.000000	69.186	-153.3710
6000.000000	69.156	-148.7908
6080.000000	69.181	-145.1911
6150.000000	69.234	-142.0965
6220.000000	69.316	-139.0537
6300.000000	69.459	-135.6385
6400.000000	69.747	-131.4647
6500.000000	70.112	-127.4411
6600.000000	70.534	-123.5339
6700.000000	71.019	-119.8034
6800.000000	71.569	-116.2546
6900.000000	72.186	-112.9297
7000.000000	72.877	-109.8922
7100.000000	73.649	-107.1867
7200.000000	74.506	-104.9567
7300.000000	75.442	-103.3139
7400.000000	76.455	-102.3984
7500.000000	77.542	-102.3867
7620.000000	78.919	-103.9064
7750.000000	80.432	-108.0304
7880.000000	81.821	-115.3104
8000.000000	82.790	-124.8427
8120.000000	83.272	-136.1588
8250.000000	83.305	-148.5530
8380.000000	83.001	-159.4531
8500.000000	82.588	-167.8704
8620.000000	82.151	-175.1556
8750.000000	81.690	177.4644
8850.000000	81.329	171.7499
9000.000000	80.695	162.8234
9120.000000	80.041	155.5519
9250.000000	79.141	148.0917
9380.000000	78.059	141.6852
9500.000000	76.950	137.0524
9620.000000	75.802	133.6890
9750.000000	74.574	131.3046
9880.000000	73.412	129.9911
10000.000000	72.432	129.4221
10150.000000	71.382	129.2261
10300.000000	70.489	129.2202
10440.000000	69.754	129.0682
10600.000000	68.992	128.4077
10750.000000	68.293	127.0261
10900.000000	67.523	124.8919
11060.000000	66.511	122.1010
11200.000000	65.368	120.2175
11380.000000	63.657	120.4813
11500.000000	62.560	122.2959
11720.000000	60.664	127.5191
11800.000000	59.992	130.2068
12060.000000	58.166	143.2357
12200.000000	57.686	152.4738
12410.000000	57.994	166.2682
12500.000000	58.491	171.0298
12650.000000	59.682	176.0211
12800.000000	61.064	175.8294
13150.000000	62.478	158.4678
13200.000000	62.415	155.7880
13400.000000	61.905	146.9966
13600.000000	61.368	140.3245
13800.000000	61.007	133.2581
14000.000000	60.691	123.6242
14300.000000	59.475	103.5223
14500.000000	57.737	90.3001
14750.000000	54.774	79.0977
15000.000000	51.624	74.5396
15250.000000	48.775	74.5094
15500.000000	46.340	77.0875
15750.000000	44.276	81.2376
16000.000000	42.427	86.2485
16250.000000	40.708	92.6893
16500.000000	38.771	110.9121
16750.000000	44.119	150.5467
17000.000000	46.373	131.4125
17250.000000	46.599	127.4966
17500.000000	47.033	127.2623
17750.000000	47.668	126.2478
18000.000000	48.407	125.3838
18250.000000	49.351	123.8918
18500.000000	50.367	120.8179
18750.000000	51.325	116.7868
19000.000000	52.159	111.8458
19250.000000	52.923	106.1438
19500.000000	53.610	99.0156
19750.000000	54.149	89.9208
