* Measurement data measured by REW V5.20.13
* Source: C:\Users\marcu\OneDrive\Desktop\audio_db\TRI Starsea s.11 Foam L.txt
* Format: Comma/Tab/Space delimited data
* Dated: Jul 16, 2023 7:23:51 PM
* REW Settings:
*  C-weighting compensation: Off
*  Target level: 75.0 dB
* Note: ; Measurement imported from C:\Users\marcu\OneDrive\Desktop\audio_db\TRI Starsea s.11 Foam L.txt Format: Comma/Tab/Space delimited data 54613 values loaded, 0 Hz to 20,000 Hz 
* Measurement: TRI Starsea s.11 Foam L
* Smoothing: None
* Frequency Step: 1/48 octave
* Start Frequency: 1.000 Hz
*
* Freq(Hz)	SPL(dB)	Phase(degrees)
1.000000	54.783	126.7305
1.015000	54.617	125.7781
1.030000	54.446	124.8016
1.044000	54.282	123.8667
1.060000	54.089	122.7686
1.075000	53.902	121.7084
1.090000	53.710	120.6165
1.106000	53.497	119.4248
1.120000	53.301	118.4120
1.138000	53.036	117.1565
1.150000	52.852	116.3420
1.172000	52.500	114.8794
1.180000	52.368	114.3532
1.206000	51.927	112.6433
1.220000	51.682	111.7117
1.241000	51.308	110.2812
1.250000	51.145	109.6510
1.265000	50.873	108.5713
1.280000	50.598	107.4475
1.315000	49.955	104.6065
1.320000	49.863	104.1710
1.340000	49.499	102.3429
1.360000	49.139	100.3617
1.380000	48.786	98.2074
1.400000	48.441	95.8601
1.430000	47.946	91.9337
1.450000	47.633	89.0168
1.475000	47.260	84.9821
1.500000	46.871	80.3710
1.525000	46.464	75.2244
1.550000	46.045	69.6262
1.575000	45.623	63.6605
1.600000	45.205	57.4112
1.625000	44.798	50.9622
1.650000	44.411	44.3976
1.675000	44.051	37.8012
1.700000	43.725	31.2569
1.725000	43.441	24.8489
1.750000	43.207	18.6610
1.775000	43.030	12.7773
1.800000	42.917	7.2815
1.825000	42.877	2.2578
1.850000	42.921	-2.3350
1.875000	43.056	-6.7533
1.900000	43.271	-11.0082
1.925000	43.555	-15.0987
1.950000	43.897	-19.0239
1.975000	44.285	-22.7828
2.000000	44.708	-26.3746
2.030000	45.245	-30.4628
2.060000	45.796	-34.3073
2.090000	46.341	-37.9066
2.120000	46.860	-41.2590
2.140000	47.183	-43.3560
2.180000	47.744	-47.2168
2.200000	47.972	-48.9790
2.240000	48.374	-52.0288
2.270000	48.650	-53.8998
2.300000	48.908	-55.4586
2.330000	49.149	-56.7454
2.360000	49.374	-57.8005
2.400000	49.655	-58.9162
2.430000	49.853	-59.5868
2.470000	50.104	-60.3356
2.500000	50.285	-60.8405
2.540000	50.520	-61.5144
2.580000	50.749	-62.2432
2.620000	50.957	-62.8111
2.650000	51.098	-63.1075
2.690000	51.270	-63.3536
2.720000	51.390	-63.4424
2.760000	51.542	-63.4569
2.800000	51.689	-63.3793
2.850000	51.873	-63.1979
2.900000	52.068	-62.9761
2.950000	52.281	-62.7500
3.000000	52.498	-62.3814
3.040000	52.672	-61.9841
3.070000	52.803	-61.6426
3.110000	52.979	-61.1490
3.150000	53.157	-60.6347
3.200000	53.384	-60.0003
3.250000	53.616	-59.4206
3.300000	53.855	-58.9437
3.350000	54.103	-58.5241
3.400000	54.362	-58.1163
3.450000	54.626	-57.7332
3.500000	54.892	-57.3877
3.550000	55.158	-57.0928
3.600000	55.420	-56.8615
3.650000	55.673	-56.7066
3.700000	55.919	-56.6383
3.750000	56.165	-56.6502
3.820000	56.504	-56.7800
3.870000	56.740	-56.9378
3.950000	57.104	-57.2714
4.000000	57.318	-57.5127
4.060000	57.561	-57.8284
4.120000	57.791	-58.2159
4.180000	58.009	-58.6623
4.250000	58.249	-59.2275
4.310000	58.443	-59.7242
4.370000	58.626	-60.2083
4.440000	58.826	-60.7481
4.500000	58.982	-61.2249
4.550000	59.104	-61.6265
4.620000	59.264	-62.1812
4.680000	59.393	-62.6366
4.750000	59.538	-63.1278
4.820000	59.676	-63.5707
4.870000	59.767	-63.8670
4.940000	59.886	-64.2551
5.000000	59.984	-64.5637
5.080000	60.113	-64.9419
5.150000	60.228	-65.2416
5.220000	60.340	-65.4984
5.300000	60.465	-65.7497
5.380000	60.590	-65.9769
5.450000	60.701	-66.1731
5.520000	60.815	-66.3788
5.600000	60.949	-66.5988
5.700000	61.120	-66.8644
5.800000	61.293	-67.1551
5.900000	61.467	-67.5045
6.000000	61.645	-67.8971
6.080000	61.788	-68.2401
6.150000	61.911	-68.5635
6.220000	62.033	-68.9108
6.300000	62.168	-69.3423
6.400000	62.335	-69.9305
6.500000	62.496	-70.5542
6.600000	62.651	-71.1938
6.700000	62.799	-71.8588
6.800000	62.940	-72.5486
6.900000	63.076	-73.2405
7.000000	63.206	-73.9153
7.100000	63.330	-74.5857
7.200000	63.449	-75.2478
7.300000	63.567	-75.8917
7.400000	63.683	-76.5100
7.500000	63.796	-77.1076
7.620000	63.932	-77.8037
7.750000	64.081	-78.5379
7.880000	64.232	-79.2442
8.000000	64.373	-79.8865
8.120000	64.516	-80.5337
8.250000	64.674	-81.2324
8.380000	64.833	-81.9367
8.500000	64.979	-82.6005
8.620000	65.126	-83.2750
8.750000	65.283	-84.0123
8.850000	65.402	-84.5825
9.000000	65.578	-85.4473
9.120000	65.716	-86.1355
9.250000	65.862	-86.8695
9.380000	66.003	-87.5963
9.500000	66.131	-88.2524
9.620000	66.258	-88.8895
9.750000	66.394	-89.5620
9.880000	66.520	-90.2149
10.000000	66.623	-90.7985
10.150000	66.739	-91.5045
10.300000	66.848	-92.1916
10.440000	66.943	-92.8144
10.600000	67.048	-93.5100
10.750000	67.146	-94.1513
10.900000	67.242	-94.7807
11.060000	67.342	-95.4428
11.200000	67.427	-96.0143
11.380000	67.533	-96.7372
11.500000	67.601	-97.2117
11.720000	67.720	-98.0658
11.800000	67.761	-98.3709
12.060000	67.891	-99.3432
12.200000	67.956	-99.8552
12.410000	68.052	-100.6088
12.500000	68.097	-100.9279
12.650000	68.180	-101.4535
12.800000	68.264	-101.9735
13.150000	68.450	-103.1692
13.200000	68.475	-103.3385
13.400000	68.575	-104.0119
13.600000	68.671	-104.6815
13.800000	68.762	-105.3479
14.000000	68.849	-106.0133
14.300000	68.974	-107.0104
14.500000	69.053	-107.6760
14.750000	69.148	-108.5082
15.000000	69.238	-109.3400
15.250000	69.324	-110.1689
15.500000	69.406	-110.9934
15.750000	69.486	-111.8130
16.000000	69.566	-112.6277
16.250000	69.649	-113.4391
16.500000	69.734	-114.2475
16.750000	69.816	-115.0537
17.000000	69.896	-115.8550
17.250000	69.975	-116.6486
17.500000	70.051	-117.4312
17.750000	70.124	-118.1988
18.000000	70.196	-118.9503
18.250000	70.267	-119.6852
18.500000	70.337	-120.4050
18.750000	70.405	-121.1116
19.000000	70.472	-121.8064
19.250000	70.536	-122.4901
19.500000	70.598	-123.1619
19.750000	70.658	-123.8210
20.000000	70.715	-124.4655
20.299999	70.782	-125.2194
20.600000	70.846	-125.9527
20.900000	70.907	-126.6681
21.200001	70.964	-127.3693
21.400000	71.002	-127.8311
21.799999	71.072	-128.7433
22.000000	71.104	-129.1945
22.400000	71.166	-130.0881
22.700001	71.208	-130.7502
23.000000	71.248	-131.4060
23.299999	71.286	-132.0560
23.600000	71.322	-132.7016
24.000000	71.367	-133.5570
24.299999	71.399	-134.1947
24.700001	71.439	-135.0385
25.000000	71.468	-135.6643
25.400000	71.505	-136.4857
25.799999	71.539	-137.2893
26.200001	71.574	-138.0747
26.500000	71.599	-138.6527
26.900000	71.632	-139.4102
27.200001	71.656	-139.9691
27.600000	71.687	-140.7021
28.000000	71.716	-141.4193
28.500000	71.748	-142.2909
29.000000	71.777	-143.1334
29.500000	71.802	-143.9491
30.000000	71.824	-144.7435
30.400000	71.839	-145.3677
30.700001	71.850	-145.8298
31.100000	71.861	-146.4379
31.500000	71.871	-147.0362
32.000000	71.881	-147.7708
32.500000	71.890	-148.4933
33.000000	71.897	-149.2059
33.500000	71.903	-149.9075
34.000000	71.907	-150.5957
34.500000	71.912	-151.2706
35.000000	71.916	-151.9334
35.500000	71.919	-152.5829
36.000000	71.920	-153.2156
36.500000	71.922	-153.8301
37.000000	71.922	-154.4283
37.500000	71.922	-155.0136
38.200001	71.918	-155.8137
38.700001	71.914	-156.3711
39.500000	71.905	-157.2358
40.000000	71.897	-157.7581
40.599998	71.889	-158.3693
41.200001	71.882	-158.9708
41.799999	71.872	-159.5647
42.500000	71.861	-160.2407
43.099998	71.850	-160.8029
43.700001	71.840	-161.3544
44.400002	71.826	-161.9845
45.000000	71.814	-162.5069
45.500000	71.803	-162.9288
46.200001	71.788	-163.5051
46.799999	71.774	-163.9897
47.500000	71.758	-164.5419
48.200001	71.740	-165.0797
48.700001	71.727	-165.4574
49.400002	71.708	-165.9768
50.000000	71.692	-166.4078
50.799999	71.670	-166.9580
51.500000	71.651	-167.4253
52.200001	71.633	-167.8859
53.000000	71.611	-168.3958
53.799999	71.589	-168.8878
54.500000	71.569	-169.3155
55.200001	71.547	-169.7353
56.000000	71.522	-170.1891
57.000000	71.493	-170.7356
58.000000	71.464	-171.2720
59.000000	71.435	-171.7867
60.000000	71.406	-172.2913
60.799999	71.381	-172.6686
61.500000	71.361	-172.9869
62.200001	71.341	-173.3090
63.000000	71.314	-173.6643
64.000000	71.280	-174.0782
65.000000	71.248	-174.4971
66.000000	71.212	-174.9005
67.000000	71.180	-175.2808
68.000000	71.147	-175.6558
69.000000	71.115	-176.0201
70.000000	71.082	-176.3687
71.000000	71.050	-176.6943
72.000000	71.020	-177.0173
73.000000	70.988	-177.3313
74.000000	70.956	-177.6242
75.000000	70.925	-177.9159
76.199997	70.887	-178.2507
77.500000	70.846	-178.6034
78.800003	70.806	-178.9279
80.000000	70.773	-179.2265
81.199997	70.739	-179.5249
82.500000	70.701	-179.8283
83.800003	70.665	179.8913
85.000000	70.632	179.6438
86.199997	70.599	179.4017
87.500000	70.564	179.1540
88.500000	70.536	178.9747
90.000000	70.495	178.7103
91.199997	70.464	178.5154
92.500000	70.432	178.3039
93.800003	70.399	178.0913
95.000000	70.367	177.9106
96.199997	70.337	177.7512
97.500000	70.307	177.5717
98.800003	70.276	177.3896
100.000000	70.246	177.2324
101.500000	70.211	177.0551
103.000000	70.177	176.8844
104.400002	70.146	176.7316
106.000000	70.113	176.5621
107.500000	70.082	176.4019
109.000000	70.049	176.2679
110.599998	70.017	176.1367
112.000000	69.988	176.0187
113.800003	69.953	175.8654
115.000000	69.929	175.7668
117.199997	69.886	175.6079
118.000000	69.870	175.5552
120.599998	69.823	175.3926
122.000000	69.798	175.3080
124.099998	69.760	175.1815
125.000000	69.745	175.1359
126.500000	69.725	175.0616
128.000000	69.706	174.9839
131.500000	69.660	174.8328
132.000000	69.654	174.8127
134.000000	69.629	174.7352
136.000000	69.605	174.6627
138.000000	69.584	174.5989
140.000000	69.562	174.5316
143.000000	69.529	174.4459
145.000000	69.506	174.3947
147.500000	69.480	174.3451
150.000000	69.455	174.2939
152.500000	69.431	174.2516
155.000000	69.408	174.2157
157.500000	69.385	174.1831
160.000000	69.359	174.1538
162.500000	69.327	174.1288
165.000000	69.294	174.1085
167.500000	69.259	174.0911
170.000000	69.226	174.0770
172.500000	69.193	174.0599
175.000000	69.162	174.0558
177.500000	69.132	174.0645
180.000000	69.102	174.0693
182.500000	69.072	174.0687
185.000000	69.043	174.0756
187.500000	69.016	174.0854
190.000000	68.988	174.1004
192.500000	68.961	174.1155
195.000000	68.936	174.1353
197.500000	68.910	174.1522
200.000000	68.885	174.1771
203.000000	68.861	174.2093
206.000000	68.838	174.2382
209.000000	68.817	174.2682
212.000000	68.795	174.2938
214.000000	68.781	174.3175
218.000000	68.753	174.3635
220.000000	68.740	174.3847
224.000000	68.716	174.4406
227.000000	68.696	174.4854
230.000000	68.678	174.5277
233.000000	68.659	174.5673
236.000000	68.642	174.6126
240.000000	68.619	174.6698
243.000000	68.601	174.7193
247.000000	68.578	174.7864
250.000000	68.563	174.8355
254.000000	68.544	174.9109
258.000000	68.525	174.9742
262.000000	68.507	175.0477
265.000000	68.493	175.1041
269.000000	68.476	175.1744
272.000000	68.463	175.2250
276.000000	68.446	175.3094
280.000000	68.430	175.3918
285.000000	68.409	175.4904
290.000000	68.388	175.5956
295.000000	68.370	175.7016
300.000000	68.352	175.8113
304.000000	68.337	175.8951
307.000000	68.328	175.9558
311.000000	68.313	176.0454
315.000000	68.299	176.1354
320.000000	68.281	176.2457
325.000000	68.265	176.3612
330.000000	68.247	176.4677
335.000000	68.231	176.5824
340.000000	68.215	176.7000
345.000000	68.201	176.8222
350.000000	68.184	176.9413
355.000000	68.171	177.0494
360.000000	68.158	177.1713
365.000000	68.144	177.2928
370.000000	68.130	177.4170
375.000000	68.117	177.5349
382.000000	68.099	177.6970
387.000000	68.085	177.8214
395.000000	68.065	178.0123
400.000000	68.053	178.1203
406.000000	68.039	178.2605
412.000000	68.024	178.4026
418.000000	68.010	178.5397
425.000000	67.993	178.7000
431.000000	67.979	178.8379
437.000000	67.966	178.9790
444.000000	67.951	179.1447
450.000000	67.935	179.2949
455.000000	67.923	179.4212
462.000000	67.905	179.5907
468.000000	67.891	179.7495
475.000000	67.873	179.9284
482.000000	67.854	-179.8919
487.000000	67.841	-179.7505
494.000000	67.825	-179.5541
500.000000	67.812	-179.3713
508.000000	67.794	-179.1276
515.000000	67.780	-178.9188
522.000000	67.766	-178.7059
530.000000	67.751	-178.4668
538.000000	67.736	-178.2184
545.000000	67.723	-177.9897
552.000000	67.710	-177.7720
560.000000	67.695	-177.5166
570.000000	67.677	-177.1916
580.000000	67.658	-176.8463
590.000000	67.640	-176.4967
600.000000	67.625	-176.1367
608.000000	67.611	-175.8478
615.000000	67.599	-175.5866
622.000000	67.589	-175.3183
630.000000	67.577	-175.0058
640.000000	67.562	-174.6125
650.000000	67.550	-174.2049
660.000000	67.539	-173.7875
670.000000	67.527	-173.3536
680.000000	67.517	-172.9196
690.000000	67.509	-172.4690
700.000000	67.503	-172.0113
710.000000	67.496	-171.5260
720.000000	67.492	-171.0365
730.000000	67.488	-170.5383
740.000000	67.488	-170.0214
750.000000	67.489	-169.5104
762.000000	67.493	-168.8612
775.000000	67.502	-168.1400
788.000000	67.516	-167.3967
800.000000	67.531	-166.6939
812.000000	67.547	-165.9896
825.000000	67.570	-165.2232
838.000000	67.601	-164.4512
850.000000	67.635	-163.7364
862.000000	67.677	-163.0532
875.000000	67.729	-162.3376
885.000000	67.773	-161.8102
900.000000	67.844	-161.0485
912.000000	67.905	-160.4768
925.000000	67.973	-159.8899
938.000000	68.044	-159.3445
950.000000	68.112	-158.8817
962.000000	68.183	-158.4472
975.000000	68.260	-158.0035
988.000000	68.338	-157.5900
1000.000000	68.414	-157.2331
1015.000000	68.517	-156.8223
1030.000000	68.625	-156.4617
1044.000000	68.725	-156.1560
1060.000000	68.838	-155.8582
1075.000000	68.942	-155.6112
1090.000000	69.045	-155.4001
1106.000000	69.150	-155.2075
1120.000000	69.240	-155.0712
1138.000000	69.353	-154.9200
1150.000000	69.426	-154.8379
1172.000000	69.555	-154.7143
1180.000000	69.599	-154.6774
1206.000000	69.740	-154.5791
1220.000000	69.812	-154.5410
1241.000000	69.915	-154.5036
1250.000000	69.952	-154.4824
1265.000000	70.001	-154.4470
1280.000000	70.042	-154.4182
1315.000000	70.135	-154.3393
1320.000000	70.147	-154.3264
1340.000000	70.196	-154.2839
1360.000000	70.244	-154.2378
1380.000000	70.290	-154.1685
1400.000000	70.339	-154.0882
1430.000000	70.414	-153.9646
1450.000000	70.467	-153.8684
1475.000000	70.541	-153.7655
1500.000000	70.620	-153.6875
1525.000000	70.704	-153.6348
1550.000000	70.795	-153.6443
1575.000000	70.890	-153.7044
1600.000000	70.996	-153.8365
1625.000000	71.128	-154.0548
1650.000000	71.266	-154.3632
1675.000000	71.403	-154.7713
1700.000000	71.536	-155.2971
1725.000000	71.662	-155.9345
1750.000000	71.777	-156.6729
1775.000000	71.878	-157.5157
1800.000000	71.964	-158.4378
1825.000000	72.031	-159.4172
1850.000000	72.079	-160.4304
1875.000000	72.107	-161.4445
1900.000000	72.115	-162.4369
1925.000000	72.107	-163.3762
1950.000000	72.083	-164.2371
1975.000000	72.048	-165.0162
2000.000000	72.003	-165.6967
2030.000000	71.934	-166.3787
2060.000000	71.861	-166.9143
2090.000000	71.788	-167.3236
2120.000000	71.718	-167.6249
2140.000000	71.673	-167.7702
2180.000000	71.593	-167.9543
2200.000000	71.558	-168.0038
2240.000000	71.497	-168.0287
2270.000000	71.459	-168.0074
2300.000000	71.429	-167.9610
2330.000000	71.406	-167.9037
2360.000000	71.389	-167.8400
2400.000000	71.375	-167.7599
2430.000000	71.370	-167.7052
2470.000000	71.371	-167.6544
2500.000000	71.376	-167.6374
2540.000000	71.386	-167.6432
2580.000000	71.399	-167.6781
2620.000000	71.417	-167.7503
2650.000000	71.431	-167.8197
2690.000000	71.453	-167.9426
2720.000000	71.470	-168.0609
2760.000000	71.495	-168.2452
2800.000000	71.521	-168.4765
2850.000000	71.554	-168.8117
2900.000000	71.587	-169.2186
2950.000000	71.619	-169.6887
3000.000000	71.649	-170.2269
3040.000000	71.671	-170.7066
3070.000000	71.686	-171.0963
3110.000000	71.704	-171.6549
3150.000000	71.719	-172.2569
3200.000000	71.733	-173.0909
3250.000000	71.736	-174.0063
3300.000000	71.731	-174.9990
3350.000000	71.714	-176.0665
3400.000000	71.684	-177.2253
3450.000000	71.637	-178.4513
3500.000000	71.572	-179.7377
3550.000000	71.486	178.9317
3600.000000	71.377	177.5691
3650.000000	71.242	176.1917
3700.000000	71.081	174.8263
3750.000000	70.890	173.4903
3820.000000	70.570	171.7267
3870.000000	70.301	170.5873
3950.000000	69.802	169.0802
4000.000000	69.444	168.4072
4060.000000	68.968	167.9496
4120.000000	68.449	167.9483
4180.000000	67.895	168.4786
4250.000000	67.217	169.8969
4310.000000	66.626	171.8950
4370.000000	66.047	174.6837
4440.000000	65.419	179.0102
4500.000000	64.962	-176.3428
4550.000000	64.671	-171.8541
4620.000000	64.455	-164.8261
4680.000000	64.485	-158.4695
4750.000000	64.787	-151.2469
4820.000000	65.354	-144.8773
4870.000000	65.884	-141.1561
4940.000000	66.729	-137.3460
5000.000000	67.481	-135.4804
5080.000000	68.416	-134.8599
5150.000000	69.104	-135.7549
5220.000000	69.630	-137.5147
5300.000000	70.027	-139.9029
5380.000000	70.254	-142.0884
5450.000000	70.373	-143.5880
5520.000000	70.468	-144.7893
5600.000000	70.568	-146.0342
5700.000000	70.657	-147.7187
5800.000000	70.661	-149.4564
5900.000000	70.576	-150.8714
6000.000000	70.436	-151.7121
6080.000000	70.312	-151.9376
6150.000000	70.211	-151.8244
6220.000000	70.129	-151.4555
6300.000000	70.078	-150.8020
6400.000000	70.120	-149.7501
6500.000000	70.244	-148.5635
6600.000000	70.436	-147.3856
6700.000000	70.699	-146.3507
6800.000000	71.031	-145.6122
6900.000000	71.425	-145.3387
7000.000000	71.867	-145.7078
7100.000000	72.337	-146.8928
7200.000000	72.804	-149.0876
7300.000000	73.213	-152.4109
7400.000000	73.504	-156.7775
7500.000000	73.626	-161.8515
7620.000000	73.513	-168.1144
7750.000000	73.102	-174.0245
7880.000000	72.501	-178.2296
8000.000000	71.869	179.5024
8120.000000	71.190	178.4951
8250.000000	70.516	178.3689
8380.000000	69.967	178.9116
8500.000000	69.615	179.3967
8620.000000	69.346	179.2825
8750.000000	69.078	178.3976
8850.000000	68.844	177.1952
9000.000000	68.374	174.8636
9120.000000	67.864	173.0997
9250.000000	67.207	171.8456
9380.000000	66.500	171.5206
9500.000000	65.854	172.0436
9620.000000	65.257	173.2481
9750.000000	64.694	175.1064
9880.000000	64.234	177.3081
10000.000000	63.915	179.4308
10150.000000	63.685	-178.0396
10300.000000	63.596	-175.9649
10440.000000	63.585	-174.8016
10600.000000	63.546	-174.6707
10750.000000	63.297	-175.3086
10900.000000	62.724	-174.5924
11060.000000	62.133	-169.7925
11200.000000	62.148	-163.5985
11380.000000	62.869	-157.4059
11500.000000	63.540	-155.2744
11720.000000	64.843	-154.8246
11800.000000	65.310	-155.5696
12060.000000	66.767	-161.0258
12200.000000	67.459	-166.0312
12410.000000	68.273	-176.0252
12500.000000	68.515	178.8955
12650.000000	68.752	169.4781
12800.000000	68.779	158.9022
13150.000000	67.729	130.1708
13200.000000	67.407	125.8500
13400.000000	65.615	109.6209
13600.000000	63.143	96.9627
13800.000000	60.300	88.9435
14000.000000	57.384	85.1115
14300.000000	53.238	85.2822
14500.000000	50.727	88.3937
14750.000000	47.919	95.0436
15000.000000	45.623	104.8610
15250.000000	44.223	117.1149
15500.000000	44.207	127.3093
15750.000000	45.001	127.6559
16000.000000	44.876	118.6609
16250.000000	43.729	111.9614
16500.000000	42.428	111.1321
16750.000000	41.463	113.5000
17000.000000	40.883	117.2891
17250.000000	40.712	121.6517
17500.000000	40.828	125.9312
17750.000000	41.258	129.6132
18000.000000	41.894	132.2727
18250.000000	42.615	133.1581
18500.000000	43.073	131.9811
18750.000000	42.657	134.0360
19000.000000	44.633	150.9693
19250.000000	48.397	144.5619
19500.000000	49.398	125.4549
19750.000000	49.086	111.6298
