* Measurement data measured by REW V5.20.13
* Source: C:\Users\marcu\OneDrive\Desktop\Fix\ n.Red f.Red Foam L.txt
* Format: Comma/Tab/Space delimited data
* Dated: Jul 25, 2023 10:23:38 PM
* REW Settings:
*  C-weighting compensation: Off
*  Target level: 75.0 dB
* Note: ; Measurement imported from C:\Users\marcu\OneDrive\Desktop\Fix\ n.Red f.Red Foam L.txt Format: Comma/Tab/Space delimited data 54613 values loaded, 0 Hz to 20,000 Hz 
* Measurement:  n.Red f.Red Foam L
* Smoothing: None
* Frequency Step: 1/48 octave
* Start Frequency: 1.000 Hz
*
* Freq(Hz)	SPL(dB)	Phase(degrees)
1.000000	66.543	-151.3253
1.015000	66.599	-152.8189
1.030000	66.652	-154.3086
1.044000	66.700	-155.6966
1.060000	66.753	-157.2813
1.075000	66.800	-158.7668
1.090000	66.845	-160.2534
1.106000	66.891	-161.8402
1.120000	66.929	-163.2215
1.138000	66.975	-164.9852
1.150000	67.004	-166.1538
1.172000	67.053	-168.2818
1.180000	67.070	-169.0511
1.206000	67.120	-171.5356
1.220000	67.145	-172.8639
1.241000	67.178	-174.8447
1.250000	67.190	-175.6895
1.265000	67.210	-177.0922
1.280000	67.227	-178.4887
1.315000	67.259	178.2751
1.320000	67.263	177.8152
1.340000	67.275	175.9810
1.360000	67.283	174.1549
1.380000	67.287	172.3361
1.400000	67.287	170.5239
1.430000	67.280	167.8162
1.450000	67.271	166.0170
1.475000	67.253	163.7737
1.500000	67.231	161.5402
1.525000	67.205	159.3179
1.550000	67.173	157.1071
1.575000	67.136	154.9083
1.600000	67.093	152.7218
1.625000	67.043	150.5482
1.650000	66.987	148.3876
1.675000	66.924	146.2406
1.700000	66.853	144.1075
1.725000	66.774	141.9888
1.750000	66.687	139.8849
1.775000	66.591	137.7961
1.800000	66.487	135.7228
1.825000	66.372	133.6655
1.850000	66.251	131.6165
1.875000	66.128	129.5593
1.900000	66.003	127.4990
1.925000	65.873	125.4412
1.950000	65.737	123.3914
1.975000	65.594	121.3554
2.000000	65.441	119.3389
2.030000	65.242	116.9527
2.060000	65.023	114.6125
2.090000	64.783	112.3281
2.120000	64.517	110.1093
2.140000	64.324	108.6713
2.180000	63.898	105.9074
2.200000	63.662	104.5845
2.240000	63.136	101.4541
2.270000	62.696	98.6604
2.300000	62.225	95.6631
2.330000	61.726	92.6229
2.360000	61.205	89.7006
2.400000	60.485	86.2654
2.430000	59.934	84.2431
2.470000	59.192	82.5914
2.500000	58.638	82.3444
2.540000	57.913	83.6431
2.580000	57.194	87.2283
2.620000	56.332	93.7819
2.650000	55.604	100.3517
2.690000	54.581	110.7350
2.720000	53.812	119.3430
2.760000	52.841	131.3320
2.800000	51.994	143.2398
2.850000	51.218	156.9041
2.900000	50.880	167.8885
2.950000	51.123	174.9998
3.000000	52.030	179.4423
3.040000	53.133	-178.3860
3.070000	54.120	-177.4287
3.110000	55.573	-176.8827
3.150000	57.098	-176.9832
3.200000	58.963	-177.7046
3.250000	60.613	-178.7136
3.300000	61.867	-179.6137
3.350000	62.798	179.1042
3.400000	63.566	177.0467
3.450000	64.202	174.4181
3.500000	64.739	171.4229
3.550000	65.207	168.2653
3.600000	65.639	165.1498
3.650000	66.066	162.2808
3.700000	66.490	159.6878
3.750000	66.862	157.0674
3.820000	67.303	153.3766
3.870000	67.572	150.7605
3.950000	67.944	146.6838
4.000000	68.152	144.2454
4.060000	68.383	141.4533
4.120000	68.573	138.7285
4.180000	68.725	136.0840
4.250000	68.863	133.1404
4.310000	68.957	130.7729
4.370000	69.036	128.5807
4.440000	69.108	126.2582
4.500000	69.138	124.4243
4.550000	69.146	123.0122
4.620000	69.141	121.2283
4.680000	69.132	119.8925
4.750000	69.130	118.5780
4.820000	69.132	117.5674
4.870000	69.124	117.0397
4.940000	69.112	116.5200
5.000000	69.110	116.2307
5.080000	69.136	115.9896
5.150000	69.201	115.8575
5.220000	69.299	115.9439
5.300000	69.442	116.2525
5.380000	69.616	116.6177
5.450000	69.791	116.8465
5.520000	69.986	116.8875
5.600000	70.249	116.8365
5.700000	70.619	116.6407
5.800000	71.000	116.2207
5.900000	71.358	115.4928
6.000000	71.717	114.4293
6.080000	71.999	113.4049
6.150000	72.234	112.4327
6.220000	72.449	111.4315
6.300000	72.670	110.2214
6.400000	72.921	108.5606
6.500000	73.141	106.8530
6.600000	73.333	105.2243
6.700000	73.489	103.6511
6.800000	73.614	102.1095
6.900000	73.720	100.6701
7.000000	73.814	99.3956
7.100000	73.886	98.2656
7.200000	73.945	97.2614
7.300000	74.006	96.3741
7.400000	74.073	95.6185
7.500000	74.140	95.0093
7.620000	74.226	94.3767
7.750000	74.340	93.7084
7.880000	74.474	93.1188
8.000000	74.607	92.5621
8.120000	74.744	91.9026
8.250000	74.903	91.1091
8.380000	75.059	90.2350
8.500000	75.188	89.3394
8.620000	75.311	88.3531
8.750000	75.429	87.2466
8.850000	75.505	86.3990
9.000000	75.597	85.0931
9.120000	75.657	84.0780
9.250000	75.707	83.0548
9.380000	75.741	82.0864
9.500000	75.768	81.2542
9.620000	75.795	80.4972
9.750000	75.820	79.7523
9.880000	75.840	79.0490
10.000000	75.852	78.4330
10.150000	75.861	77.7069
10.300000	75.868	76.9659
10.440000	75.875	76.2607
10.600000	75.881	75.4334
10.750000	75.883	74.6179
10.900000	75.882	73.7766
11.060000	75.873	72.8780
11.200000	75.858	72.0845
11.380000	75.834	71.0908
11.500000	75.814	70.4532
11.720000	75.773	69.3285
11.800000	75.758	68.9371
12.060000	75.710	67.7150
12.200000	75.686	67.0689
12.410000	75.657	66.1125
12.500000	75.652	65.6980
12.650000	75.656	65.0016
12.800000	75.664	64.3044
13.150000	75.677	62.6817
13.200000	75.678	62.4563
13.400000	75.681	61.5718
13.600000	75.684	60.7249
13.800000	75.687	59.9233
14.000000	75.695	59.1476
14.300000	75.715	58.0182
14.500000	75.733	57.2604
14.750000	75.755	56.3030
15.000000	75.774	55.3367
15.250000	75.788	54.3889
15.500000	75.796	53.4867
15.750000	75.802	52.6409
16.000000	75.813	51.8557
16.250000	75.834	51.1031
16.500000	75.863	50.3669
16.750000	75.894	49.6221
17.000000	75.922	48.8678
17.250000	75.946	48.1131
17.500000	75.965	47.3731
17.750000	75.980	46.6663
18.000000	75.994	45.9920
18.250000	76.008	45.3491
18.500000	76.024	44.7178
18.750000	76.041	44.0890
19.000000	76.057	43.4545
19.250000	76.072	42.8160
19.500000	76.084	42.1816
19.750000	76.094	41.5573
20.000000	76.104	40.9486
20.299999	76.118	40.2324
20.600000	76.133	39.5241
20.900000	76.147	38.8163
21.200001	76.160	38.1092
21.400000	76.168	37.6441
21.799999	76.183	36.7371
22.000000	76.191	36.2962
22.400000	76.208	35.4317
22.700001	76.223	34.7857
23.000000	76.237	34.1350
23.299999	76.249	33.4872
23.600000	76.258	32.8531
24.000000	76.268	32.0419
24.299999	76.277	31.4579
24.700001	76.289	30.6953
25.000000	76.299	30.1238
25.400000	76.311	29.3601
25.799999	76.319	28.6073
26.200001	76.325	27.8771
26.500000	76.329	27.3425
26.900000	76.334	26.6383
27.200001	76.338	26.1125
27.600000	76.340	25.4165
28.000000	76.342	24.7322
28.500000	76.344	23.8908
29.000000	76.346	23.0518
29.500000	76.347	22.2143
30.000000	76.345	21.3939
30.400000	76.344	20.7539
30.700001	76.344	20.2797
31.100000	76.344	19.6514
31.500000	76.343	19.0299
32.000000	76.341	18.2701
32.500000	76.339	17.5289
33.000000	76.338	16.7948
33.500000	76.334	16.0681
34.000000	76.328	15.3629
34.500000	76.321	14.6832
35.000000	76.316	14.0157
35.500000	76.309	13.3494
36.000000	76.301	12.6902
36.500000	76.292	12.0450
37.000000	76.283	11.4111
37.500000	76.273	10.7842
38.200001	76.259	9.9202
38.700001	76.248	9.3131
39.500000	76.229	8.3553
40.000000	76.217	7.7734
40.599998	76.204	7.0961
41.200001	76.192	6.4301
41.799999	76.180	5.7696
42.500000	76.164	5.0154
43.099998	76.149	4.3862
43.700001	76.133	3.7719
44.400002	76.115	3.0726
45.000000	76.099	2.4845
45.500000	76.085	2.0026
46.200001	76.064	1.3462
46.799999	76.047	0.7970
47.500000	76.027	0.1637
48.200001	76.006	-0.4531
48.700001	75.990	-0.8821
49.400002	75.969	-1.4769
50.000000	75.950	-1.9811
50.799999	75.923	-2.6321
51.500000	75.901	-3.1842
52.200001	75.879	-3.7278
53.000000	75.853	-4.3406
53.799999	75.826	-4.9404
54.500000	75.802	-5.4442
55.200001	75.778	-5.9288
56.000000	75.751	-6.4717
57.000000	75.718	-7.1381
58.000000	75.682	-7.7845
59.000000	75.646	-8.4142
60.000000	75.607	-9.0271
60.799999	75.578	-9.5001
61.500000	75.551	-9.9054
62.200001	75.525	-10.3048
63.000000	75.495	-10.7536
64.000000	75.454	-11.2969
65.000000	75.413	-11.8163
66.000000	75.372	-12.3230
67.000000	75.330	-12.8123
68.000000	75.289	-13.2907
69.000000	75.246	-13.7601
70.000000	75.204	-14.2183
71.000000	75.161	-14.6604
72.000000	75.118	-15.0919
73.000000	75.076	-15.5161
74.000000	75.033	-15.9261
75.000000	74.990	-16.3229
76.199997	74.938	-16.7774
77.500000	74.883	-17.2554
78.800003	74.826	-17.7295
80.000000	74.773	-18.1451
81.199997	74.722	-18.5431
82.500000	74.667	-18.9729
83.800003	74.612	-19.3826
85.000000	74.561	-19.7520
86.199997	74.510	-20.1057
87.500000	74.456	-20.4761
88.500000	74.414	-20.7555
90.000000	74.351	-21.1647
91.199997	74.299	-21.4810
92.500000	74.244	-21.8142
93.800003	74.189	-22.1335
95.000000	74.139	-22.4160
96.199997	74.090	-22.6958
97.500000	74.034	-22.9875
98.800003	73.981	-23.2664
100.000000	73.931	-23.5184
101.500000	73.868	-23.8223
103.000000	73.806	-24.1118
104.400002	73.749	-24.3746
106.000000	73.683	-24.6679
107.500000	73.623	-24.9301
109.000000	73.562	-25.1909
110.599998	73.497	-25.4493
112.000000	73.441	-25.6663
113.800003	73.369	-25.9335
115.000000	73.323	-26.1044
117.199997	73.238	-26.4226
118.000000	73.206	-26.5342
120.599998	73.107	-26.8534
122.000000	73.053	-27.0325
124.099998	72.971	-27.2723
125.000000	72.937	-27.3677
126.500000	72.884	-27.5238
128.000000	72.833	-27.6776
131.500000	72.716	-28.0194
132.000000	72.699	-28.0634
134.000000	72.634	-28.2358
136.000000	72.570	-28.4121
138.000000	72.504	-28.5664
140.000000	72.440	-28.7072
143.000000	72.344	-28.9105
145.000000	72.281	-29.0408
147.500000	72.203	-29.1860
150.000000	72.127	-29.3248
152.500000	72.051	-29.4412
155.000000	71.976	-29.5446
157.500000	71.903	-29.6454
160.000000	71.828	-29.7349
162.500000	71.746	-29.8207
165.000000	71.661	-29.8931
167.500000	71.578	-29.9491
170.000000	71.495	-29.9955
172.500000	71.414	-30.0336
175.000000	71.333	-30.0635
177.500000	71.254	-30.0953
180.000000	71.176	-30.1195
182.500000	71.097	-30.1274
185.000000	71.020	-30.1245
187.500000	70.944	-30.1244
190.000000	70.868	-30.1171
192.500000	70.795	-30.1012
195.000000	70.721	-30.0770
197.500000	70.648	-30.0542
200.000000	70.577	-30.0264
203.000000	70.497	-29.9794
206.000000	70.420	-29.9144
209.000000	70.345	-29.8604
212.000000	70.272	-29.7975
214.000000	70.224	-29.7442
218.000000	70.130	-29.6325
220.000000	70.081	-29.5763
224.000000	69.987	-29.4557
227.000000	69.918	-29.3659
230.000000	69.852	-29.2546
233.000000	69.787	-29.1414
236.000000	69.722	-29.0306
240.000000	69.633	-28.8754
243.000000	69.569	-28.7490
247.000000	69.486	-28.5691
250.000000	69.426	-28.4294
254.000000	69.348	-28.2435
258.000000	69.269	-28.0537
262.000000	69.194	-27.8519
265.000000	69.138	-27.6997
269.000000	69.065	-27.4909
272.000000	69.013	-27.3287
276.000000	68.942	-27.1107
280.000000	68.871	-26.8923
285.000000	68.790	-26.5901
290.000000	68.708	-26.2819
295.000000	68.628	-25.9924
300.000000	68.549	-25.6777
304.000000	68.488	-25.4204
307.000000	68.444	-25.2263
311.000000	68.386	-24.9681
315.000000	68.328	-24.7147
320.000000	68.257	-24.3838
325.000000	68.187	-24.0416
330.000000	68.119	-23.7006
335.000000	68.052	-23.3589
340.000000	67.988	-23.0044
345.000000	67.924	-22.6548
350.000000	67.861	-22.2963
355.000000	67.801	-21.9354
360.000000	67.742	-21.5714
365.000000	67.685	-21.2089
370.000000	67.630	-20.8369
375.000000	67.575	-20.4639
382.000000	67.503	-19.9485
387.000000	67.453	-19.5576
395.000000	67.374	-18.9512
400.000000	67.326	-18.5773
406.000000	67.268	-18.1150
412.000000	67.215	-17.6384
418.000000	67.163	-17.1829
425.000000	67.105	-16.6464
431.000000	67.054	-16.1765
437.000000	67.006	-15.7028
444.000000	66.953	-15.1581
450.000000	66.907	-14.6917
455.000000	66.872	-14.2977
462.000000	66.822	-13.7325
468.000000	66.781	-13.2552
475.000000	66.736	-12.7042
482.000000	66.692	-12.1420
487.000000	66.660	-11.7432
494.000000	66.618	-11.1797
500.000000	66.584	-10.6920
508.000000	66.543	-10.0547
515.000000	66.507	-9.4854
522.000000	66.472	-8.9053
530.000000	66.435	-8.2491
538.000000	66.400	-7.6024
545.000000	66.371	-7.0259
552.000000	66.342	-6.4390
560.000000	66.314	-5.7702
570.000000	66.279	-4.9338
580.000000	66.247	-4.0932
590.000000	66.217	-3.2628
600.000000	66.193	-2.4305
608.000000	66.175	-1.7645
615.000000	66.160	-1.1850
622.000000	66.146	-0.6005
630.000000	66.131	0.0704
640.000000	66.117	0.9200
650.000000	66.105	1.7511
660.000000	66.096	2.5854
670.000000	66.087	3.4255
680.000000	66.081	4.2546
690.000000	66.080	5.0939
700.000000	66.076	5.9170
710.000000	66.073	6.7545
720.000000	66.070	7.6120
730.000000	66.072	8.5243
740.000000	66.081	9.4771
750.000000	66.103	10.4174
762.000000	66.139	11.4779
775.000000	66.184	12.5483
788.000000	66.230	13.5873
800.000000	66.267	14.5415
812.000000	66.299	15.4875
825.000000	66.337	16.4965
838.000000	66.376	17.4811
850.000000	66.417	18.3790
862.000000	66.461	19.2652
875.000000	66.508	20.2239
885.000000	66.548	20.9479
900.000000	66.609	22.0100
912.000000	66.660	22.8561
925.000000	66.719	23.7570
938.000000	66.782	24.6456
950.000000	66.841	25.4485
962.000000	66.901	26.2376
975.000000	66.970	27.0911
988.000000	67.042	27.9316
1000.000000	67.114	28.6810
1015.000000	67.217	29.5937
1030.000000	67.326	30.4811
1044.000000	67.428	31.2889
1060.000000	67.551	32.1748
1075.000000	67.667	32.9729
1090.000000	67.784	33.7353
1106.000000	67.911	34.5051
1120.000000	68.024	35.1528
1138.000000	68.168	35.9454
1150.000000	68.264	36.4546
1172.000000	68.437	37.3365
1180.000000	68.500	37.6478
1206.000000	68.701	38.6284
1220.000000	68.808	39.1201
1241.000000	68.964	39.8484
1250.000000	69.026	40.1550
1265.000000	69.118	40.6498
1280.000000	69.203	41.1389
1315.000000	69.396	42.2373
1320.000000	69.423	42.3906
1340.000000	69.533	43.0027
1360.000000	69.642	43.6047
1380.000000	69.751	44.2032
1400.000000	69.861	44.7840
1430.000000	70.026	45.6514
1450.000000	70.138	46.2067
1475.000000	70.278	46.8980
1500.000000	70.423	47.5759
1525.000000	70.569	48.2354
1550.000000	70.719	48.8618
1575.000000	70.871	49.4809
1600.000000	71.035	50.0709
1625.000000	71.225	50.6345
1650.000000	71.425	51.1659
1675.000000	71.630	51.6609
1700.000000	71.837	52.1198
1725.000000	72.047	52.5419
1750.000000	72.260	52.9152
1775.000000	72.477	53.2415
1800.000000	72.695	53.5237
1825.000000	72.914	53.7508
1850.000000	73.136	53.9120
1875.000000	73.359	54.0108
1900.000000	73.583	54.0500
1925.000000	73.806	54.0195
1950.000000	74.028	53.9109
1975.000000	74.250	53.7202
2000.000000	74.466	53.4510
2030.000000	74.716	53.0204
2060.000000	74.957	52.4538
2090.000000	75.188	51.7520
2120.000000	75.411	50.9133
2140.000000	75.553	50.2761
2180.000000	75.820	48.8211
2200.000000	75.944	48.0004
2240.000000	76.177	46.1784
2270.000000	76.336	44.6660
2300.000000	76.482	43.0340
2330.000000	76.615	41.3032
2360.000000	76.734	39.4775
2400.000000	76.871	36.9352
2430.000000	76.955	34.9804
2470.000000	77.040	32.3583
2500.000000	77.081	30.4067
2540.000000	77.107	27.8634
2580.000000	77.102	25.4380
2620.000000	77.071	23.1561
2650.000000	77.033	21.5698
2690.000000	76.965	19.6204
2720.000000	76.904	18.2910
2760.000000	76.813	16.7022
2800.000000	76.716	15.3120
2850.000000	76.589	13.8541
2900.000000	76.462	12.6697
2950.000000	76.342	11.7421
3000.000000	76.230	11.0308
3040.000000	76.151	10.5942
3070.000000	76.098	10.3396
3110.000000	76.037	10.0756
3150.000000	75.986	9.8923
3200.000000	75.941	9.7435
3250.000000	75.914	9.6705
3300.000000	75.907	9.6475
3350.000000	75.923	9.6462
3400.000000	75.960	9.6451
3450.000000	76.019	9.6185
3500.000000	76.097	9.5491
3550.000000	76.197	9.4054
3600.000000	76.316	9.1750
3650.000000	76.454	8.8173
3700.000000	76.608	8.3029
3750.000000	76.778	7.6156
3820.000000	77.036	6.2662
3870.000000	77.230	4.9940
3950.000000	77.545	2.3074
4000.000000	77.736	0.1589
4060.000000	77.940	-2.9351
4120.000000	78.108	-6.6154
4180.000000	78.225	-10.8636
4250.000000	78.272	-16.4231
4310.000000	78.220	-21.5203
4370.000000	78.074	-26.6877
4440.000000	77.777	-32.4478
4500.000000	77.418	-36.9067
4550.000000	77.051	-40.1662
4620.000000	76.452	-43.9579
4680.000000	75.876	-46.4985
4750.000000	75.156	-48.6710
4820.000000	74.409	-50.0952
4870.000000	73.871	-50.7064
4940.000000	73.121	-51.0699
5000.000000	72.489	-50.9969
5080.000000	71.661	-50.4155
5150.000000	70.965	-49.5438
5220.000000	70.302	-48.3860
5300.000000	69.589	-46.7592
5380.000000	68.924	-44.8629
5450.000000	68.378	-43.0130
5520.000000	67.863	-41.0264
5600.000000	67.310	-38.6118
5700.000000	66.664	-35.3613
5800.000000	66.062	-31.8210
5900.000000	65.509	-27.9075
6000.000000	65.019	-23.4083
6080.000000	64.739	-19.3055
6150.000000	64.652	-15.7956
6220.000000	64.675	-13.2319
6300.000000	64.620	-11.4878
6400.000000	64.411	-9.0103
6500.000000	64.206	-5.7209
6600.000000	64.062	-2.0482
6700.000000	63.971	1.7628
6800.000000	63.935	5.6071
6900.000000	63.949	9.5140
7000.000000	64.012	13.4046
7100.000000	64.130	17.2795
7200.000000	64.299	21.0765
7300.000000	64.518	24.7668
7400.000000	64.786	28.3548
7500.000000	65.106	31.7896
7620.000000	65.557	35.7304
7750.000000	66.141	39.6751
7880.000000	66.826	43.1886
8000.000000	67.531	45.8911
8120.000000	68.248	47.9268
8250.000000	69.103	49.1120
8380.000000	70.042	48.8677
8500.000000	70.932	46.9850
8620.000000	71.761	43.1798
8750.000000	72.440	36.8512
8850.000000	72.707	30.8102
9000.000000	72.597	21.4225
9120.000000	72.117	15.0981
9250.000000	71.357	10.3890
9380.000000	70.508	7.9733
9500.000000	69.757	7.4426
9620.000000	69.089	8.1744
9750.000000	68.493	10.0082
9880.000000	68.048	12.6459
10000.000000	67.796	15.5957
10150.000000	67.747	19.6675
10300.000000	67.973	23.8400
10440.000000	68.442	27.4353
10600.000000	69.298	30.5063
10750.000000	70.377	31.5136
10900.000000	71.618	29.7766
11060.000000	72.924	24.1758
11200.000000	73.871	15.8330
11380.000000	74.518	0.7753
11500.000000	74.427	-10.8221
11720.000000	73.084	-29.7523
11800.000000	72.307	-34.6914
12060.000000	69.435	-42.9529
12200.000000	67.943	-43.6743
12410.000000	65.971	-41.8054
12500.000000	65.231	-40.2709
12650.000000	64.121	-37.0802
12800.000000	63.179	-33.3350
13150.000000	61.610	-23.6389
13200.000000	61.455	-22.2242
13400.000000	61.009	-16.7328
13600.000000	60.841	-11.8165
13800.000000	60.961	-8.0579
14000.000000	61.361	-6.2079
14300.000000	62.308	-9.8220
14500.000000	62.736	-18.5644
14750.000000	62.095	-34.9434
15000.000000	59.861	-48.3085
15250.000000	56.911	-53.3481
15500.000000	54.075	-52.0371
15750.000000	51.624	-47.0714
16000.000000	49.590	-39.9860
16250.000000	48.112	-31.3515
16500.000000	47.143	-21.8004
16750.000000	46.486	-13.3974
17000.000000	45.870	-4.7455
17250.000000	45.486	4.5270
17500.000000	45.294	13.7436
17750.000000	45.305	22.4821
18000.000000	45.524	30.7062
18250.000000	45.921	37.8463
18500.000000	46.469	43.2648
18750.000000	47.106	46.2323
19000.000000	47.601	45.7361
19250.000000	47.648	41.7997
19500.000000	46.970	36.4047
19750.000000	45.498	32.9216
