* Measurement data measured by REW V5.20.13
* Source: C:\Users\marcu\OneDrive\Desktop\audio_db\KBear Aurora - stock - Foam L.txt
* Format: Comma/Tab/Space delimited data
* Dated: May 29, 2023 8:27:35 AM
* REW Settings:
*  C-weighting compensation: Off
*  Target level: 75.0 dB
* Note: ; Measurement imported from C:\Users\marcu\OneDrive\Desktop\audio_db\KBear Aurora - stock - Foam L.txt Format: Comma/Tab/Space delimited data 54613 values loaded, 0 Hz to 20,000 Hz 
* Measurement: KBear Aurora - stock - Foam L
* Smoothing: None
* Frequency Step: 1/48 octave
* Start Frequency: 1.000 Hz
*
* Freq(Hz)	SPL(dB)	Phase(degrees)
1.000000	58.321	120.4727
1.015000	58.164	119.5227
1.030000	58.002	118.5649
1.044000	57.847	117.6634
1.060000	57.664	116.6236
1.075000	57.487	115.6388
1.090000	57.305	114.6439
1.106000	57.106	113.5768
1.120000	56.930	112.6696
1.138000	56.704	111.5421
1.150000	56.552	110.8105
1.172000	56.271	109.5001
1.180000	56.168	109.0307
1.206000	55.826	107.5182
1.220000	55.638	106.7044
1.241000	55.348	105.4725
1.250000	55.221	104.9372
1.265000	55.006	104.0306
1.280000	54.784	103.1013
1.315000	54.243	100.8134
1.320000	54.162	100.4699
1.340000	53.831	99.0461
1.360000	53.485	97.5325
1.380000	53.122	95.9161
1.400000	52.742	94.1837
1.430000	52.136	91.3388
1.450000	51.706	89.2589
1.475000	51.132	86.4493
1.500000	50.471	83.5578
1.525000	49.726	80.6032
1.550000	48.916	77.5626
1.575000	48.056	74.4129
1.600000	47.165	71.1312
1.625000	46.258	67.6944
1.650000	45.354	64.0797
1.675000	44.470	60.2640
1.700000	43.622	56.2243
1.725000	42.827	51.9377
1.750000	42.104	47.3811
1.775000	41.468	42.5316
1.800000	40.937	37.3661
1.825000	40.529	31.8618
1.850000	40.251	25.8493
1.875000	40.086	19.0393
1.900000	40.020	11.5507
1.925000	40.041	3.5190
1.950000	40.136	-4.9204
1.975000	40.293	-13.6319
2.000000	40.498	-22.4801
2.030000	40.791	-33.0876
2.060000	41.114	-43.4626
2.090000	41.445	-53.3713
2.120000	41.762	-62.5793
2.140000	41.956	-68.2132
2.180000	42.268	-77.9573
2.200000	42.376	-81.9315
2.240000	42.591	-88.5345
2.270000	42.779	-92.5677
2.300000	42.978	-95.8948
2.330000	43.181	-98.5895
2.360000	43.377	-100.7252
2.400000	43.614	-102.8306
2.430000	43.761	-103.9484
2.470000	43.898	-104.9635
2.500000	43.945	-105.4639
2.540000	43.916	-105.9229
2.580000	43.754	-106.2589
2.620000	43.384	-106.1935
2.650000	42.991	-105.8223
2.690000	42.362	-104.8900
2.720000	41.845	-103.8573
2.760000	41.143	-102.0278
2.800000	40.484	-99.6720
2.850000	39.810	-95.9720
2.900000	39.416	-91.4147
2.950000	39.407	-85.8313
3.000000	39.722	-78.1314
3.040000	40.154	-70.7254
3.070000	40.560	-64.7154
3.110000	41.187	-56.4263
3.150000	41.880	-48.2011
3.200000	42.792	-38.6397
3.250000	43.694	-30.6319
3.300000	44.525	-25.3395
3.350000	45.362	-25.2056
3.400000	46.268	-24.8916
3.450000	47.210	-24.4674
3.500000	48.155	-24.0027
3.550000	49.068	-23.5673
3.600000	49.916	-23.2310
3.650000	50.667	-23.0635
3.700000	51.305	-23.4319
3.750000	51.864	-24.2028
3.820000	52.540	-25.6648
3.870000	52.961	-26.8723
3.950000	53.558	-28.8628
4.000000	53.901	-30.0170
4.060000	54.292	-31.2285
4.120000	54.628	-32.4376
4.180000	54.915	-33.6451
4.250000	55.201	-35.0015
4.310000	55.417	-36.0759
4.370000	55.617	-37.0293
4.440000	55.833	-37.9646
4.500000	55.984	-38.6597
4.550000	56.090	-39.1653
4.620000	56.220	-39.7568
4.680000	56.323	-40.1523
4.750000	56.448	-40.4789
4.820000	56.574	-40.6310
4.870000	56.656	-40.6206
4.940000	56.766	-40.4805
5.000000	56.861	-40.2808
5.080000	57.002	-39.9618
5.150000	57.146	-39.6805
5.220000	57.306	-39.3093
5.300000	57.504	-38.7988
5.380000	57.714	-38.2862
5.450000	57.907	-37.9095
5.520000	58.107	-37.6556
5.600000	58.353	-37.4486
5.700000	58.677	-37.3012
5.800000	59.001	-37.3093
5.900000	59.310	-37.5092
6.000000	59.614	-37.9222
6.080000	59.852	-38.3678
6.150000	60.052	-38.8117
6.220000	60.241	-39.2815
6.300000	60.442	-39.8670
6.400000	60.676	-40.7009
6.500000	60.893	-41.5821
6.600000	61.095	-42.4398
6.700000	61.279	-43.2828
6.800000	61.445	-44.1276
6.900000	61.603	-44.9440
7.000000	61.757	-45.7042
7.100000	61.902	-46.4131
7.200000	62.042	-47.0852
7.300000	62.183	-47.7323
7.400000	62.328	-48.3538
7.500000	62.474	-48.9395
7.620000	62.651	-49.6315
7.750000	62.849	-50.4101
7.880000	63.053	-51.2014
8.000000	63.243	-51.9563
8.120000	63.432	-52.7549
8.250000	63.637	-53.6664
8.380000	63.839	-54.6067
8.500000	64.019	-55.4918
8.620000	64.196	-56.4024
8.750000	64.381	-57.3888
8.850000	64.520	-58.1316
9.000000	64.721	-59.2363
9.120000	64.878	-60.0974
9.250000	65.047	-60.9941
9.380000	65.213	-61.8595
9.500000	65.366	-62.6357
9.620000	65.520	-63.3897
9.750000	65.689	-64.1811
9.880000	65.850	-64.9600
10.000000	65.987	-65.6723
10.150000	66.147	-66.5501
10.300000	66.300	-67.4227
10.440000	66.437	-68.2348
10.600000	66.586	-69.1525
10.750000	66.724	-70.0000
10.900000	66.857	-70.8344
11.060000	66.995	-71.6991
11.200000	67.113	-72.4350
11.380000	67.260	-73.3538
11.500000	67.356	-73.9473
11.720000	67.528	-75.0069
11.800000	67.589	-75.3858
12.060000	67.783	-76.5945
12.200000	67.882	-77.2403
12.410000	68.029	-78.2003
12.500000	68.095	-78.6085
12.650000	68.211	-79.2859
12.800000	68.326	-79.9538
13.150000	68.577	-81.4630
13.200000	68.611	-81.6721
13.400000	68.745	-82.4895
13.600000	68.874	-83.2850
13.800000	68.999	-84.0590
14.000000	69.123	-84.8280
14.300000	69.303	-85.9814
14.500000	69.420	-86.7637
14.750000	69.560	-87.7562
15.000000	69.692	-88.7629
15.250000	69.817	-89.7709
15.500000	69.934	-90.7688
15.750000	70.047	-91.7510
16.000000	70.160	-92.7129
16.250000	70.274	-93.6604
16.500000	70.392	-94.5977
16.750000	70.509	-95.5317
17.000000	70.624	-96.4662
17.250000	70.738	-97.4011
17.500000	70.850	-98.3352
17.750000	70.958	-99.2618
18.000000	71.063	-100.1750
18.250000	71.165	-101.0686
18.500000	71.264	-101.9338
18.750000	71.362	-102.7688
19.000000	71.458	-103.5719
19.250000	71.556	-104.3497
19.500000	71.654	-105.1133
19.750000	71.752	-105.8714
20.000000	71.850	-106.6378
20.299999	71.964	-107.5677
20.600000	72.069	-108.4972
20.900000	72.164	-109.4012
21.200001	72.249	-110.2467
21.400000	72.303	-110.7664
21.799999	72.412	-111.7156
22.000000	72.471	-112.1648
22.400000	72.600	-113.0791
22.700001	72.700	-113.8320
23.000000	72.795	-114.6671
23.299999	72.878	-115.5617
23.600000	72.945	-116.4715
24.000000	73.010	-117.6275
24.299999	73.050	-118.4058
24.700001	73.102	-119.3195
25.000000	73.147	-119.9444
25.400000	73.218	-120.7593
25.799999	73.297	-121.6053
26.200001	73.376	-122.4921
26.500000	73.433	-123.1709
26.900000	73.504	-124.0766
27.200001	73.556	-124.7502
27.600000	73.623	-125.6399
28.000000	73.686	-126.5184
28.500000	73.759	-127.5874
29.000000	73.829	-128.6118
29.500000	73.897	-129.6053
30.000000	73.962	-130.5969
30.400000	74.011	-131.3916
30.700001	74.043	-131.9799
31.100000	74.080	-132.7388
31.500000	74.116	-133.4620
32.000000	74.159	-134.3248
32.500000	74.204	-135.1652
33.000000	74.249	-136.0025
33.500000	74.293	-136.8437
34.000000	74.334	-137.6905
34.500000	74.370	-138.5308
35.000000	74.402	-139.3416
35.500000	74.433	-140.1149
36.000000	74.469	-140.8815
36.500000	74.504	-141.6778
37.000000	74.531	-142.4878
37.500000	74.546	-143.2467
38.200001	74.572	-144.1726
38.700001	74.604	-144.8209
39.500000	74.651	-146.0077
40.000000	74.663	-146.7616
40.599998	74.669	-147.5420
41.200001	74.686	-148.2133
41.799999	74.717	-148.9152
42.500000	74.748	-149.8293
43.099998	74.759	-150.5951
43.700001	74.767	-151.2878
44.400002	74.781	-152.0524
45.000000	74.795	-152.7170
45.500000	74.805	-153.2760
46.200001	74.815	-154.0520
46.799999	74.821	-154.7117
47.500000	74.827	-155.4732
48.200001	74.829	-156.2089
48.700001	74.830	-156.7156
49.400002	74.835	-157.4140
50.000000	74.841	-158.0175
50.799999	74.846	-158.8233
51.500000	74.846	-159.5001
52.200001	74.846	-160.1422
53.000000	74.849	-160.8650
53.799999	74.846	-161.5876
54.500000	74.842	-162.1908
55.200001	74.837	-162.7691
56.000000	74.833	-163.4438
57.000000	74.823	-164.2849
58.000000	74.814	-165.0582
59.000000	74.814	-165.8621
60.000000	74.804	-166.7118
60.799999	74.786	-167.3333
61.500000	74.771	-167.8104
62.200001	74.762	-168.2549
63.000000	74.755	-168.7739
64.000000	74.743	-169.4632
65.000000	74.722	-170.1439
66.000000	74.698	-170.7838
67.000000	74.678	-171.4144
68.000000	74.657	-172.0385
69.000000	74.638	-172.6615
70.000000	74.616	-173.2808
71.000000	74.590	-173.8545
72.000000	74.569	-174.4211
73.000000	74.542	-175.0083
74.000000	74.507	-175.5492
75.000000	74.474	-176.0340
76.199997	74.448	-176.5685
77.500000	74.435	-177.2941
78.800003	74.394	-178.0710
80.000000	74.354	-178.6583
81.199997	74.318	-179.2079
82.500000	74.286	-179.7452
83.800003	74.256	179.6660
85.000000	74.220	179.1282
86.199997	74.184	178.6115
87.500000	74.144	178.0466
88.500000	74.111	177.6437
90.000000	74.067	177.0802
91.199997	74.037	176.6232
92.500000	73.999	176.1182
93.800003	73.958	175.6553
95.000000	73.923	175.2281
96.199997	73.886	174.7983
97.500000	73.845	174.3477
98.800003	73.804	173.9164
100.000000	73.767	173.5323
101.500000	73.722	173.0790
103.000000	73.677	172.6301
104.400002	73.634	172.2183
106.000000	73.584	171.7634
107.500000	73.536	171.3372
109.000000	73.488	170.9322
110.599998	73.439	170.5156
112.000000	73.396	170.1545
113.800003	73.343	169.6960
115.000000	73.306	169.3961
117.199997	73.239	168.8831
118.000000	73.213	168.7016
120.599998	73.130	168.1312
122.000000	73.086	167.8376
124.099998	73.025	167.4014
125.000000	73.001	167.2206
126.500000	72.962	166.9282
128.000000	72.921	166.6530
131.500000	72.822	166.0277
132.000000	72.808	165.9387
134.000000	72.754	165.5897
136.000000	72.704	165.2572
138.000000	72.656	164.9388
140.000000	72.602	164.6337
143.000000	72.519	164.1858
145.000000	72.465	163.9057
147.500000	72.405	163.5875
150.000000	72.344	163.2966
152.500000	72.280	163.0013
155.000000	72.214	162.6837
157.500000	72.150	162.4020
160.000000	72.087	162.1489
162.500000	72.014	161.9369
165.000000	71.940	161.7155
167.500000	71.863	161.4836
170.000000	71.787	161.2694
172.500000	71.716	161.0782
175.000000	71.646	160.8983
177.500000	71.576	160.7380
180.000000	71.504	160.5851
182.500000	71.431	160.4183
185.000000	71.361	160.2542
187.500000	71.294	160.1096
190.000000	71.228	159.9942
192.500000	71.159	159.8903
195.000000	71.090	159.7906
197.500000	71.023	159.6794
200.000000	70.958	159.5709
203.000000	70.886	159.4628
206.000000	70.817	159.3822
209.000000	70.746	159.3173
212.000000	70.676	159.2472
214.000000	70.630	159.1978
218.000000	70.540	159.1147
220.000000	70.497	159.0807
224.000000	70.410	159.0256
227.000000	70.344	159.0093
230.000000	70.282	158.9850
233.000000	70.220	158.9604
236.000000	70.160	158.9540
240.000000	70.077	158.9528
243.000000	70.017	158.9655
247.000000	69.937	158.9942
250.000000	69.878	159.0202
254.000000	69.802	159.0594
258.000000	69.725	159.1142
262.000000	69.653	159.1767
265.000000	69.600	159.2315
269.000000	69.527	159.3141
272.000000	69.473	159.3699
276.000000	69.404	159.4481
280.000000	69.338	159.5373
285.000000	69.257	159.6687
290.000000	69.177	159.8063
295.000000	69.099	159.9517
300.000000	69.024	160.1149
304.000000	68.962	160.2426
307.000000	68.915	160.3549
311.000000	68.857	160.5086
315.000000	68.799	160.6481
320.000000	68.725	160.8523
325.000000	68.655	161.0533
330.000000	68.587	161.2590
335.000000	68.520	161.4597
340.000000	68.455	161.6653
345.000000	68.390	161.8848
350.000000	68.327	162.1018
355.000000	68.265	162.3251
360.000000	68.203	162.5638
365.000000	68.142	162.7956
370.000000	68.083	163.0331
375.000000	68.025	163.2748
382.000000	67.945	163.6168
387.000000	67.887	163.8612
395.000000	67.798	164.2905
400.000000	67.742	164.5613
406.000000	67.678	164.8985
412.000000	67.618	165.2359
418.000000	67.558	165.5526
425.000000	67.488	165.9408
431.000000	67.431	166.2928
437.000000	67.378	166.6687
444.000000	67.313	167.1041
450.000000	67.259	167.4659
455.000000	67.215	167.7727
462.000000	67.155	168.1965
468.000000	67.107	168.5789
475.000000	67.052	169.0329
482.000000	66.999	169.4869
487.000000	66.961	169.8168
494.000000	66.907	170.2700
500.000000	66.865	170.6597
508.000000	66.813	171.1896
515.000000	66.765	171.6577
522.000000	66.720	172.1354
530.000000	66.672	172.6756
538.000000	66.623	173.2054
545.000000	66.583	173.6761
552.000000	66.544	174.1747
560.000000	66.504	174.7455
570.000000	66.454	175.4582
580.000000	66.406	176.1565
590.000000	66.362	176.8459
600.000000	66.317	177.5830
608.000000	66.285	178.2000
615.000000	66.256	178.7169
622.000000	66.229	179.2369
630.000000	66.202	179.8284
640.000000	66.168	-179.4206
650.000000	66.140	-178.6621
660.000000	66.114	-177.8856
670.000000	66.088	-177.1123
680.000000	66.066	-176.3537
690.000000	66.049	-175.5772
700.000000	66.033	-174.7741
710.000000	66.017	-173.9701
720.000000	66.006	-173.1574
730.000000	65.997	-172.3433
740.000000	65.991	-171.5261
750.000000	65.988	-170.7165
762.000000	65.989	-169.7322
775.000000	65.995	-168.6315
788.000000	66.005	-167.5394
800.000000	66.022	-166.5226
812.000000	66.036	-165.5100
825.000000	66.060	-164.3718
838.000000	66.095	-163.1794
850.000000	66.154	-162.0678
862.000000	66.254	-161.2062
875.000000	66.316	-160.8053
885.000000	66.302	-160.3408
900.000000	66.299	-159.1429
912.000000	66.325	-158.0977
925.000000	66.378	-157.0010
938.000000	66.453	-155.9467
950.000000	66.538	-155.1271
962.000000	66.606	-154.4062
975.000000	66.674	-153.5702
988.000000	66.747	-152.7209
1000.000000	66.824	-151.9631
1015.000000	66.935	-151.0253
1030.000000	67.049	-150.1401
1044.000000	67.161	-149.3606
1060.000000	67.294	-148.5015
1075.000000	67.417	-147.7495
1090.000000	67.541	-147.0145
1106.000000	67.676	-146.2637
1120.000000	67.795	-145.6287
1138.000000	67.942	-144.8382
1150.000000	68.044	-144.3320
1172.000000	68.235	-143.4323
1180.000000	68.304	-143.1131
1206.000000	68.531	-142.0955
1220.000000	68.656	-141.5473
1241.000000	68.848	-140.7625
1250.000000	68.929	-140.4462
1265.000000	69.056	-139.9402
1280.000000	69.181	-139.4603
1315.000000	69.488	-138.5354
1320.000000	69.535	-138.4249
1340.000000	69.717	-138.0493
1360.000000	69.903	-137.8026
1380.000000	70.083	-137.6872
1400.000000	70.255	-137.6617
1430.000000	70.493	-137.7510
1450.000000	70.635	-137.8902
1475.000000	70.800	-138.1190
1500.000000	70.951	-138.3493
1525.000000	71.087	-138.5697
1550.000000	71.211	-138.7579
1575.000000	71.331	-138.9280
1600.000000	71.454	-139.0811
1625.000000	71.601	-139.2260
1650.000000	71.750	-139.3461
1675.000000	71.899	-139.4487
1700.000000	72.048	-139.5621
1725.000000	72.202	-139.6949
1750.000000	72.355	-139.8448
1775.000000	72.508	-140.0096
1800.000000	72.661	-140.1911
1825.000000	72.814	-140.3924
1850.000000	72.969	-140.6373
1875.000000	73.125	-140.9279
1900.000000	73.282	-141.2517
1925.000000	73.436	-141.6125
1950.000000	73.588	-142.0134
1975.000000	73.738	-142.4632
2000.000000	73.886	-142.9574
2030.000000	74.056	-143.6175
2060.000000	74.215	-144.3352
2090.000000	74.369	-145.1163
2120.000000	74.517	-145.9541
2140.000000	74.611	-146.5569
2180.000000	74.786	-147.8302
2200.000000	74.867	-148.4902
2240.000000	75.015	-149.8809
2270.000000	75.116	-150.9775
2300.000000	75.204	-152.0945
2330.000000	75.279	-153.2231
2360.000000	75.341	-154.3687
2400.000000	75.408	-155.9052
2430.000000	75.446	-157.0452
2470.000000	75.479	-158.5425
2500.000000	75.491	-159.6328
2540.000000	75.490	-161.0348
2580.000000	75.474	-162.3571
2620.000000	75.445	-163.6078
2650.000000	75.416	-164.4845
2690.000000	75.371	-165.5667
2720.000000	75.331	-166.3167
2760.000000	75.275	-167.2245
2800.000000	75.213	-168.0455
2850.000000	75.134	-168.9365
2900.000000	75.058	-169.7072
2950.000000	74.983	-170.3397
3000.000000	74.910	-170.8598
3040.000000	74.857	-171.1980
3070.000000	74.821	-171.4111
3110.000000	74.778	-171.6562
3150.000000	74.743	-171.8567
3200.000000	74.709	-172.0635
3250.000000	74.680	-172.1970
3300.000000	74.662	-172.2968
3350.000000	74.658	-172.3861
3400.000000	74.671	-172.4602
3450.000000	74.695	-172.5431
3500.000000	74.727	-172.6294
3550.000000	74.767	-172.7412
3600.000000	74.820	-172.8858
3650.000000	74.889	-173.0953
3700.000000	74.971	-173.3731
3750.000000	75.058	-173.7122
3820.000000	75.190	-174.3264
3870.000000	75.292	-174.8921
3950.000000	75.465	-176.0410
4000.000000	75.573	-176.9265
4060.000000	75.699	-178.1711
4120.000000	75.811	-179.6256
4180.000000	75.910	178.7130
4250.000000	76.004	176.5056
4310.000000	76.056	174.4020
4370.000000	76.072	172.1521
4440.000000	76.039	169.3745
4500.000000	75.963	166.9190
4550.000000	75.860	164.8725
4620.000000	75.651	162.1253
4680.000000	75.406	160.0566
4750.000000	75.098	158.4373
4820.000000	74.889	157.0122
4870.000000	74.719	155.5512
4940.000000	74.383	153.5968
5000.000000	74.047	152.3341
5080.000000	73.564	151.2031
5150.000000	73.135	150.6248
5220.000000	72.709	150.3839
5300.000000	72.229	150.4950
5380.000000	71.770	150.9459
5450.000000	71.390	151.5781
5520.000000	71.025	152.4212
5600.000000	70.631	153.6170
5700.000000	70.182	155.3694
5800.000000	69.786	157.3817
5900.000000	69.434	159.6113
6000.000000	69.134	161.9882
6080.000000	68.927	163.9756
6150.000000	68.774	165.7699
6220.000000	68.648	167.5887
6300.000000	68.554	169.6765
6400.000000	68.532	172.2891
6500.000000	68.569	174.8854
6600.000000	68.655	177.4013
6700.000000	68.792	179.8218
6800.000000	68.983	-177.9016
6900.000000	69.229	-175.8127
7000.000000	69.522	-173.9554
7100.000000	69.867	-172.4084
7200.000000	70.270	-171.3128
7300.000000	70.716	-170.7721
7400.000000	71.186	-170.8763
7500.000000	71.663	-171.7488
7620.000000	72.208	-173.8542
7750.000000	72.697	-177.4939
7880.000000	72.997	177.6841
8000.000000	73.039	172.6784
8120.000000	72.788	167.7476
8250.000000	72.284	163.0891
8380.000000	71.636	159.4734
8500.000000	70.974	157.1230
8620.000000	70.296	155.6583
8750.000000	69.578	154.9368
8850.000000	69.059	154.8943
9000.000000	68.348	155.4776
9120.000000	67.855	156.3192
9250.000000	67.405	157.3942
9380.000000	67.042	158.4570
9500.000000	66.767	159.2832
9620.000000	66.536	159.8730
9750.000000	66.324	160.1428
9880.000000	66.129	159.9478
10000.000000	65.946	159.3301
10150.000000	65.703	157.9969
10300.000000	65.356	156.2730
10440.000000	64.900	154.6975
10600.000000	64.221	153.4690
10750.000000	63.480	153.2651
10900.000000	62.702	154.1797
11060.000000	61.891	156.3255
11200.000000	61.246	159.0549
11380.000000	60.538	163.4623
11500.000000	60.167	166.7670
11720.000000	59.691	172.9833
11800.000000	59.558	175.1834
12060.000000	59.331	-177.3682
12200.000000	59.351	-173.6846
12410.000000	59.508	-169.0013
12500.000000	59.604	-167.3358
12650.000000	59.771	-165.1012
12800.000000	59.938	-163.6235
13150.000000	60.181	-162.7561
13200.000000	60.187	-162.8673
13400.000000	60.111	-163.6114
13600.000000	59.880	-164.4450
13800.000000	59.531	-165.0002
14000.000000	59.117	-165.1050
14300.000000	58.484	-164.4732
14500.000000	58.094	-163.8214
14750.000000	57.648	-163.1259
15000.000000	57.221	-162.7768
15250.000000	56.784	-162.7462
15500.000000	56.307	-163.1799
15750.000000	55.738	-164.0644
16000.000000	55.072	-164.9655
16250.000000	54.425	-165.2487
16500.000000	53.683	-163.8074
16750.000000	52.880	-159.9694
17000.000000	52.377	-152.6725
17250.000000	52.574	-146.6694
17500.000000	52.627	-143.0176
17750.000000	52.655	-138.5467
18000.000000	52.877	-133.9063
18250.000000	53.295	-130.2100
18500.000000	53.842	-128.2881
18750.000000	54.413	-129.3334
19000.000000	54.696	-134.0316
19250.000000	54.323	-141.3953
19500.000000	53.122	-148.5320
19750.000000	51.245	-152.4240
