* Measurement data measured by REW V5.20.13
* Source: C:\Users\marcu\OneDrive\Desktop\audio_db\Night Oblivion Butastur s.DD Foam R.txt
* Format: Comma/Tab/Space delimited data
* Dated: Aug 22, 2023 8:04:52 PM
* REW Settings:
*  C-weighting compensation: Off
*  Target level: 75.0 dB
* Note: ; Measurement imported from C:\Users\marcu\OneDrive\Desktop\audio_db\Night Oblivion Butastur s.DD Foam R.txt Format: Comma/Tab/Space delimited data 54613 values loaded, 0 Hz to 20,000 Hz 
* Measurement: Right Oblivion Butastur s.DD Fo
* Smoothing: None
* Frequency Step: 1/48 octave
* Start Frequency: 1.000 Hz
*
* Freq(Hz)	SPL(dB)	Phase(degrees)
1.000000	60.223	-82.5799
1.015000	60.055	-84.1643
1.030000	59.885	-85.7870
1.044000	59.726	-87.3382
1.060000	59.541	-89.1572
1.075000	59.366	-90.9101
1.090000	59.190	-92.7116
1.106000	58.999	-94.6873
1.120000	58.825	-96.4492
1.138000	58.589	-98.7560
1.150000	58.426	-100.3196
1.172000	58.115	-103.2396
1.180000	57.999	-104.3184
1.206000	57.614	-107.8872
1.220000	57.402	-109.8482
1.241000	57.081	-112.8412
1.250000	56.943	-114.1427
1.265000	56.713	-116.3368
1.280000	56.484	-118.5621
1.315000	55.958	-123.8746
1.320000	55.884	-124.6472
1.340000	55.596	-127.7716
1.360000	55.318	-130.9500
1.380000	55.052	-134.1823
1.400000	54.803	-137.4681
1.430000	54.462	-142.4965
1.450000	54.261	-145.9146
1.475000	54.042	-150.2780
1.500000	53.850	-154.8780
1.525000	53.679	-159.7107
1.550000	53.530	-164.7335
1.575000	53.400	-169.9037
1.600000	53.288	-175.1788
1.625000	53.192	179.4840
1.650000	53.111	174.1272
1.675000	53.043	168.7935
1.700000	52.986	163.5254
1.725000	52.939	158.3657
1.750000	52.901	153.3570
1.775000	52.869	148.5418
1.800000	52.843	143.9629
1.825000	52.821	139.6627
1.850000	52.810	135.6280
1.875000	52.828	131.7430
1.900000	52.871	127.9976
1.925000	52.935	124.3866
1.950000	53.013	120.9050
1.975000	53.102	117.5476
2.000000	53.195	114.3094
2.030000	53.307	110.5739
2.060000	53.410	106.9939
2.090000	53.496	103.5607
2.120000	53.555	100.2656
2.140000	53.576	98.1412
2.180000	53.561	94.0544
2.200000	53.520	92.0860
2.240000	53.419	88.1116
2.270000	53.335	85.1037
2.300000	53.239	82.1394
2.330000	53.125	79.2787
2.360000	52.987	76.5818
2.400000	52.757	73.3444
2.430000	52.541	71.2632
2.470000	52.187	69.0649
2.500000	51.863	67.9266
2.540000	51.343	67.2036
2.580000	50.688	67.5062
2.620000	49.736	68.7798
2.650000	48.853	70.3022
2.690000	47.535	73.0061
2.720000	46.496	75.4835
2.760000	45.125	79.3038
2.800000	43.865	83.6211
2.850000	42.600	89.5603
2.900000	41.866	95.9157
2.950000	41.855	102.6834
3.000000	42.569	111.2268
3.040000	43.545	119.1248
3.070000	44.452	125.3967
3.110000	45.821	133.8921
3.150000	47.286	142.1597
3.200000	49.111	151.5433
3.250000	50.761	159.1158
3.300000	52.055	164.0710
3.350000	53.094	166.2579
3.400000	54.040	166.3183
3.450000	54.903	164.7955
3.500000	55.690	162.2328
3.550000	56.411	159.1736
3.600000	57.074	156.1613
3.650000	57.689	153.7390
3.700000	58.249	152.0006
3.750000	58.732	150.1633
3.820000	59.297	147.4446
3.870000	59.638	145.4617
3.950000	60.106	142.3472
4.000000	60.370	140.5097
4.060000	60.668	138.4597
4.120000	60.912	136.4577
4.180000	61.108	134.5134
4.250000	61.288	132.3651
4.310000	61.412	130.6666
4.370000	61.519	129.1374
4.440000	61.625	127.5865
4.500000	61.677	126.4104
4.550000	61.700	125.5404
4.620000	61.714	124.5010
4.680000	61.721	123.7851
4.750000	61.740	123.1664
4.820000	61.767	122.8286
4.870000	61.778	122.7754
4.940000	61.792	122.8995
5.000000	61.812	123.1323
5.080000	61.869	123.5263
5.150000	61.960	123.8764
5.220000	62.085	124.3781
5.300000	62.260	125.0926
5.380000	62.464	125.8025
5.450000	62.659	126.2929
5.520000	62.867	126.5636
5.600000	63.138	126.7087
5.700000	63.510	126.6836
5.800000	63.884	126.4042
5.900000	64.229	125.8349
6.000000	64.565	124.9211
6.080000	64.824	124.0112
6.150000	65.038	123.1431
6.220000	65.233	122.2559
6.300000	65.433	121.1902
6.400000	65.655	119.7228
6.500000	65.849	118.2178
6.600000	66.019	116.7959
6.700000	66.160	115.4412
6.800000	66.275	114.1260
6.900000	66.377	112.9041
7.000000	66.476	111.8255
7.100000	66.561	110.8840
7.200000	66.641	110.0497
7.300000	66.727	109.2957
7.400000	66.826	108.6256
7.500000	66.932	108.0638
7.620000	67.070	107.4394
7.750000	67.240	106.7176
7.880000	67.432	105.9984
8.000000	67.619	105.2879
8.120000	67.807	104.4697
8.250000	68.019	103.4790
8.380000	68.227	102.4115
8.500000	68.406	101.3662
8.620000	68.578	100.2472
8.750000	68.752	99.0179
8.850000	68.875	98.0947
9.000000	69.042	96.7075
9.120000	69.166	95.6383
9.250000	69.294	94.5578
9.380000	69.413	93.5397
9.500000	69.521	92.6522
9.620000	69.631	91.8215
9.750000	69.749	90.9830
9.880000	69.870	90.1716
10.000000	69.985	89.4385
10.150000	70.132	88.5490
10.300000	70.278	87.6483
10.440000	70.414	86.7943
10.600000	70.566	85.8110
10.750000	70.702	84.8773
10.900000	70.833	83.9388
11.060000	70.962	82.9601
11.200000	71.068	82.1188
11.380000	71.197	81.0747
11.500000	71.279	80.4088
11.720000	71.423	79.2342
11.800000	71.474	78.8207
12.060000	71.637	77.5180
12.200000	71.722	76.8225
12.410000	71.846	75.7871
12.500000	71.896	75.3408
12.650000	71.978	74.5932
12.800000	72.054	73.8479
13.150000	72.214	72.1302
13.200000	72.235	71.8909
13.400000	72.313	70.9510
13.600000	72.386	70.0375
13.800000	72.457	69.1537
14.000000	72.526	68.2791
14.300000	72.627	66.9718
14.500000	72.692	66.0828
14.750000	72.766	64.9537
15.000000	72.833	63.8086
15.250000	72.891	62.6713
15.500000	72.943	61.5602
15.750000	72.991	60.4825
16.000000	73.038	59.4391
16.250000	73.085	58.4102
16.500000	73.134	57.3858
16.750000	73.184	56.3513
17.000000	73.230	55.3106
17.250000	73.273	54.2721
17.500000	73.311	53.2487
17.750000	73.346	52.2547
18.000000	73.379	51.2910
18.250000	73.412	50.3579
18.500000	73.445	49.4446
18.750000	73.477	48.5461
19.000000	73.509	47.6583
19.250000	73.537	46.7833
19.500000	73.563	45.9258
19.750000	73.586	45.0893
20.000000	73.606	44.2761
20.299999	73.629	43.3256
20.600000	73.649	42.3957
20.900000	73.667	41.4790
21.200001	73.682	40.5725
21.400000	73.690	39.9756
21.799999	73.701	38.8012
22.000000	73.706	38.2232
22.400000	73.711	37.0801
22.700001	73.713	36.2274
23.000000	73.713	35.3759
23.299999	73.709	34.5298
23.600000	73.704	33.6947
24.000000	73.696	32.6031
24.299999	73.689	31.7990
24.700001	73.681	30.7385
25.000000	73.675	29.9492
25.400000	73.667	28.9087
25.799999	73.659	27.8909
26.200001	73.652	26.8985
26.500000	73.647	26.1659
26.900000	73.642	25.1987
27.200001	73.636	24.4816
27.600000	73.625	23.5449
28.000000	73.614	22.6414
28.500000	73.597	21.5592
29.000000	73.579	20.5121
29.500000	73.559	19.4893
30.000000	73.536	18.4940
30.400000	73.517	17.7168
30.700001	73.501	17.1411
31.100000	73.480	16.3794
31.500000	73.456	15.6266
32.000000	73.424	14.7059
32.500000	73.393	13.8071
33.000000	73.365	12.9161
33.500000	73.335	12.0282
34.000000	73.304	11.1562
34.500000	73.273	10.3109
35.000000	73.244	9.4861
35.500000	73.215	8.6719
36.000000	73.185	7.8718
36.500000	73.153	7.0991
37.000000	73.119	6.3634
37.500000	73.085	5.6622
38.200001	73.041	4.7163
38.700001	73.011	4.0475
39.500000	72.958	2.9835
40.000000	72.922	2.3378
40.599998	72.880	1.5894
41.200001	72.837	0.8591
41.799999	72.796	0.1394
42.500000	72.750	-0.6904
43.099998	72.709	-1.3954
43.700001	72.666	-2.0847
44.400002	72.616	-2.8537
45.000000	72.574	-3.4901
45.500000	72.538	-4.0100
46.200001	72.488	-4.7124
46.799999	72.446	-5.2916
47.500000	72.398	-5.9661
48.200001	72.347	-6.6339
48.700001	72.309	-7.0878
49.400002	72.260	-7.6935
50.000000	72.219	-8.2120
50.799999	72.163	-8.9061
51.500000	72.111	-9.4772
52.200001	72.062	-10.0168
53.000000	72.009	-10.6438
53.799999	71.950	-11.2535
54.500000	71.901	-11.7400
55.200001	71.854	-12.2256
56.000000	71.798	-12.7793
57.000000	71.731	-13.3966
58.000000	71.670	-14.0668
59.000000	71.592	-14.7015
60.000000	71.527	-15.2401
60.799999	71.479	-15.7549
61.500000	71.425	-16.1893
62.200001	71.373	-16.5414
63.000000	71.327	-16.9456
64.000000	71.269	-17.5341
65.000000	71.201	-18.0718
66.000000	71.141	-18.5692
67.000000	71.077	-19.0594
68.000000	71.010	-19.4902
69.000000	70.949	-19.8817
70.000000	70.889	-20.2875
71.000000	70.826	-20.6949
72.000000	70.763	-21.0998
73.000000	70.698	-21.4930
74.000000	70.638	-21.8555
75.000000	70.582	-22.2189
76.199997	70.514	-22.6742
77.500000	70.436	-23.1028
78.800003	70.364	-23.4938
80.000000	70.298	-23.8657
81.199997	70.231	-24.2286
82.500000	70.157	-24.5911
83.800003	70.089	-24.9470
85.000000	70.024	-25.2773
86.199997	69.959	-25.5676
87.500000	69.895	-25.8751
88.500000	69.845	-26.1227
90.000000	69.771	-26.4651
91.199997	69.713	-26.7332
92.500000	69.651	-27.0013
93.800003	69.590	-27.2570
95.000000	69.534	-27.4880
96.199997	69.477	-27.7092
97.500000	69.416	-27.9495
98.800003	69.354	-28.1730
100.000000	69.301	-28.3738
101.500000	69.233	-28.6178
103.000000	69.170	-28.8414
104.400002	69.112	-29.0489
106.000000	69.046	-29.2805
107.500000	68.983	-29.4834
109.000000	68.922	-29.6669
110.599998	68.858	-29.8553
112.000000	68.803	-30.0168
113.800003	68.736	-30.2258
115.000000	68.693	-30.3660
117.199997	68.614	-30.6152
118.000000	68.584	-30.7020
120.599998	68.489	-30.9645
122.000000	68.438	-31.0775
124.099998	68.368	-31.2539
125.000000	68.337	-31.3246
126.500000	68.289	-31.4405
128.000000	68.240	-31.5591
131.500000	68.128	-31.7917
132.000000	68.112	-31.8259
134.000000	68.048	-31.9471
136.000000	67.989	-32.0777
138.000000	67.930	-32.2184
140.000000	67.870	-32.3370
143.000000	67.784	-32.4752
145.000000	67.728	-32.5648
147.500000	67.662	-32.6807
150.000000	67.601	-32.7869
152.500000	67.537	-32.8901
155.000000	67.472	-32.9822
157.500000	67.408	-33.0709
160.000000	67.350	-33.1594
162.500000	67.293	-33.2267
165.000000	67.237	-33.3008
167.500000	67.180	-33.3826
170.000000	67.123	-33.4443
172.500000	67.072	-33.5000
175.000000	67.020	-33.5436
177.500000	66.968	-33.5802
180.000000	66.919	-33.6287
182.500000	66.874	-33.6985
185.000000	66.828	-33.7592
187.500000	66.783	-33.7898
190.000000	66.739	-33.8124
192.500000	66.694	-33.8484
195.000000	66.650	-33.8942
197.500000	66.606	-33.9362
200.000000	66.565	-33.9724
203.000000	66.517	-34.0039
206.000000	66.469	-34.0125
209.000000	66.423	-34.0271
212.000000	66.375	-34.0529
214.000000	66.344	-34.0720
218.000000	66.287	-34.1110
220.000000	66.260	-34.1249
224.000000	66.204	-34.1406
227.000000	66.164	-34.1633
230.000000	66.124	-34.1888
233.000000	66.087	-34.2007
236.000000	66.051	-34.2166
240.000000	66.001	-34.2237
243.000000	65.967	-34.2246
247.000000	65.920	-34.2346
250.000000	65.887	-34.2600
254.000000	65.844	-34.2988
258.000000	65.800	-34.2887
262.000000	65.761	-34.2854
265.000000	65.732	-34.2947
269.000000	65.691	-34.2971
272.000000	65.664	-34.2963
276.000000	65.626	-34.3061
280.000000	65.587	-34.3090
285.000000	65.540	-34.3156
290.000000	65.497	-34.3131
295.000000	65.457	-34.3127
300.000000	65.415	-34.2861
304.000000	65.383	-34.2842
307.000000	65.360	-34.2955
311.000000	65.330	-34.3101
315.000000	65.305	-34.3108
320.000000	65.274	-34.3118
325.000000	65.241	-34.2953
330.000000	65.211	-34.2852
335.000000	65.179	-34.2897
340.000000	65.147	-34.2843
345.000000	65.119	-34.2716
350.000000	65.092	-34.2554
355.000000	65.064	-34.2349
360.000000	65.035	-34.2323
365.000000	65.010	-34.2129
370.000000	64.985	-34.1945
375.000000	64.962	-34.1786
382.000000	64.931	-34.1646
387.000000	64.909	-34.1525
395.000000	64.878	-34.1307
400.000000	64.864	-34.1212
406.000000	64.840	-34.1118
412.000000	64.820	-34.0836
418.000000	64.801	-34.0551
425.000000	64.781	-34.0301
431.000000	64.764	-33.9990
437.000000	64.749	-33.9845
444.000000	64.732	-33.9708
450.000000	64.716	-33.9398
455.000000	64.706	-33.8998
462.000000	64.693	-33.8590
468.000000	64.682	-33.8158
475.000000	64.674	-33.7863
482.000000	64.665	-33.7742
487.000000	64.660	-33.7489
494.000000	64.653	-33.7068
500.000000	64.648	-33.6763
508.000000	64.642	-33.6359
515.000000	64.639	-33.6072
522.000000	64.635	-33.5623
530.000000	64.633	-33.4957
538.000000	64.634	-33.4333
545.000000	64.636	-33.3808
552.000000	64.640	-33.3455
560.000000	64.646	-33.2959
570.000000	64.656	-33.2504
580.000000	64.666	-33.1810
590.000000	64.680	-33.1013
600.000000	64.696	-33.0212
608.000000	64.713	-32.9675
615.000000	64.726	-32.9199
622.000000	64.741	-32.8794
630.000000	64.762	-32.8209
640.000000	64.789	-32.7269
650.000000	64.818	-32.6227
660.000000	64.848	-32.5538
670.000000	64.883	-32.4767
680.000000	64.919	-32.4071
690.000000	64.958	-32.3062
700.000000	65.001	-32.2018
710.000000	65.046	-32.1154
720.000000	65.093	-32.0374
730.000000	65.145	-31.9581
740.000000	65.200	-31.8625
750.000000	65.260	-31.7705
762.000000	65.333	-31.6755
775.000000	65.417	-31.5792
788.000000	65.507	-31.4858
800.000000	65.598	-31.4166
812.000000	65.691	-31.3596
825.000000	65.794	-31.2969
838.000000	65.908	-31.2396
850.000000	66.015	-31.2150
862.000000	66.130	-31.2158
875.000000	66.259	-31.2540
885.000000	66.363	-31.2883
900.000000	66.521	-31.3650
912.000000	66.652	-31.4633
925.000000	66.800	-31.6100
938.000000	66.953	-31.8020
950.000000	67.098	-31.9983
962.000000	67.245	-32.2488
975.000000	67.408	-32.5605
988.000000	67.571	-32.9097
1000.000000	67.723	-33.2760
1015.000000	67.917	-33.7977
1030.000000	68.111	-34.3745
1044.000000	68.289	-34.9794
1060.000000	68.494	-35.7430
1075.000000	68.684	-36.5198
1090.000000	68.871	-37.3574
1106.000000	69.068	-38.3077
1120.000000	69.236	-39.2038
1138.000000	69.449	-40.4307
1150.000000	69.586	-41.2775
1172.000000	69.826	-42.9022
1180.000000	69.911	-43.5128
1206.000000	70.175	-45.5778
1220.000000	70.310	-46.7332
1241.000000	70.505	-48.5021
1250.000000	70.585	-49.2776
1265.000000	70.713	-50.5975
1280.000000	70.833	-51.9423
1315.000000	71.089	-55.1119
1320.000000	71.122	-55.5682
1340.000000	71.251	-57.4100
1360.000000	71.369	-59.2670
1380.000000	71.478	-61.1351
1400.000000	71.576	-63.0111
1430.000000	71.701	-65.7932
1450.000000	71.772	-67.6496
1475.000000	71.849	-69.9572
1500.000000	71.913	-72.2443
1525.000000	71.962	-74.4988
1550.000000	71.998	-76.7000
1575.000000	72.020	-78.8609
1600.000000	72.033	-80.9738
1625.000000	72.033	-83.0268
1650.000000	72.020	-85.0010
1675.000000	71.998	-86.9233
1700.000000	71.966	-88.7553
1725.000000	71.928	-90.5118
1750.000000	71.883	-92.2031
1775.000000	71.836	-93.8135
1800.000000	71.782	-95.3486
1825.000000	71.722	-96.7987
1850.000000	71.660	-98.1724
1875.000000	71.595	-99.4796
1900.000000	71.533	-100.7177
1925.000000	71.469	-101.8930
1950.000000	71.404	-103.0163
1975.000000	71.340	-104.0668
2000.000000	71.273	-105.0536
2030.000000	71.198	-106.1793
2060.000000	71.126	-107.2389
2090.000000	71.058	-108.2307
2120.000000	70.993	-109.1555
2140.000000	70.950	-109.7434
2180.000000	70.873	-110.8574
2200.000000	70.838	-111.3834
2240.000000	70.773	-112.3786
2270.000000	70.728	-113.0833
2300.000000	70.686	-113.7463
2330.000000	70.648	-114.3734
2360.000000	70.614	-114.9686
2400.000000	70.577	-115.7201
2430.000000	70.555	-116.2584
2470.000000	70.531	-116.9306
2500.000000	70.519	-117.4010
2540.000000	70.510	-117.9905
2580.000000	70.508	-118.5333
2620.000000	70.519	-119.0451
2650.000000	70.534	-119.4175
2690.000000	70.566	-119.8825
2720.000000	70.598	-120.2206
2760.000000	70.653	-120.6689
2800.000000	70.721	-121.1056
2850.000000	70.828	-121.6691
2900.000000	70.965	-122.2960
2950.000000	71.137	-123.0433
3000.000000	71.342	-124.0481
3040.000000	71.521	-125.1202
3070.000000	71.659	-126.1129
3110.000000	71.837	-127.7252
3150.000000	71.997	-129.6770
3200.000000	72.142	-132.5339
3250.000000	72.206	-135.6659
3300.000000	72.179	-138.8125
3350.000000	72.072	-141.7193
3400.000000	71.912	-144.2157
3450.000000	71.719	-146.2335
3500.000000	71.520	-147.7996
3550.000000	71.326	-148.9766
3600.000000	71.150	-149.8417
3650.000000	70.997	-150.4669
3700.000000	70.869	-150.9042
3750.000000	70.769	-151.2123
3820.000000	70.674	-151.5103
3870.000000	70.637	-151.6666
3950.000000	70.632	-151.9001
4000.000000	70.659	-152.0920
4060.000000	70.723	-152.4203
4120.000000	70.815	-152.9073
4180.000000	70.931	-153.5833
4250.000000	71.089	-154.6945
4310.000000	71.229	-155.9231
4370.000000	71.368	-157.4814
4440.000000	71.515	-159.6586
4500.000000	71.613	-161.8410
4550.000000	71.668	-163.8377
4620.000000	71.693	-166.8156
4680.000000	71.663	-169.4606
4750.000000	71.569	-172.4896
4820.000000	71.417	-175.3918
4870.000000	71.276	-177.3284
4940.000000	71.035	-179.7896
5000.000000	70.794	178.3483
5080.000000	70.432	176.2755
5150.000000	70.087	174.8918
5220.000000	69.727	173.9650
5300.000000	69.318	173.4850
5380.000000	68.942	173.6185
5450.000000	68.670	174.1935
5520.000000	68.486	175.0504
5600.000000	68.434	175.9311
5700.000000	68.593	175.2468
5800.000000	68.473	170.4096
5900.000000	67.591	168.2723
6000.000000	66.944	169.1580
6080.000000	66.519	170.2047
6150.000000	66.189	171.4315
6220.000000	65.907	172.8554
6300.000000	65.640	174.5913
6400.000000	65.368	176.8282
6500.000000	65.158	179.0928
6600.000000	65.001	-178.6666
6700.000000	64.893	-176.4724
6800.000000	64.828	-174.3427
6900.000000	64.799	-172.3156
7000.000000	64.806	-170.3915
7100.000000	64.854	-168.6086
7200.000000	64.940	-167.0248
7300.000000	65.044	-165.6761
7400.000000	65.161	-164.5594
7500.000000	65.288	-163.6852
7620.000000	65.449	-162.9366
7750.000000	65.618	-162.4719
7880.000000	65.775	-162.3453
8000.000000	65.895	-162.4939
8120.000000	65.986	-162.8488
8250.000000	66.048	-163.3568
8380.000000	66.074	-163.9044
8500.000000	66.070	-164.3317
8620.000000	66.069	-164.7634
8750.000000	66.037	-165.4699
8850.000000	65.952	-165.9320
9000.000000	65.782	-165.9670
9120.000000	65.668	-165.5185
9250.000000	65.584	-164.7180
9380.000000	65.547	-163.6880
9500.000000	65.558	-162.6087
9620.000000	65.617	-161.4569
9750.000000	65.729	-160.1666
9880.000000	65.906	-158.7983
10000.000000	66.150	-157.6285
10150.000000	66.541	-156.5729
10300.000000	67.000	-155.9411
10440.000000	67.509	-155.7762
10600.000000	68.188	-156.4683
10750.000000	68.889	-158.3610
10900.000000	69.586	-161.8803
11060.000000	70.182	-167.7410
11200.000000	70.418	-174.0964
11380.000000	70.277	178.5168
11500.000000	70.064	175.2170
11720.000000	69.967	171.0302
11800.000000	70.024	169.0035
12060.000000	69.995	159.2693
12200.000000	69.691	153.3074
12410.000000	68.896	145.3674
12500.000000	68.469	142.5433
12650.000000	67.692	138.6187
12800.000000	66.868	135.5541
13150.000000	64.917	131.2510
13200.000000	64.646	130.8955
13400.000000	63.600	129.8370
13600.000000	62.613	129.0798
13800.000000	61.649	128.3442
14000.000000	60.668	127.6699
14300.000000	59.213	126.0734
14500.000000	58.010	124.8954
14750.000000	56.243	125.8515
15000.000000	54.740	129.6249
15250.000000	53.395	132.3859
15500.000000	51.863	138.7200
15750.000000	51.270	145.8796
16000.000000	50.914	149.8795
16250.000000	50.601	148.0498
16500.000000	49.147	147.3450
16750.000000	47.632	151.6382
17000.000000	46.376	157.9506
17250.000000	45.297	165.1337
17500.000000	44.291	172.8358
17750.000000	43.266	-178.3532
18000.000000	42.137	-165.8721
18250.000000	41.809	-143.8456
18500.000000	45.292	-123.1438
18750.000000	48.712	-131.6930
19000.000000	49.326	-153.1276
19250.000000	47.732	-167.8228
19500.000000	45.172	-170.4771
19750.000000	43.410	-165.4265
