* Measurement data measured by REW V5.20.13
* Source: C:\Users\marcu\OneDrive\Desktop\audio_db\Simgot EN1000 - stock - Foam R.txt
* Format: Comma/Tab/Space delimited data
* Dated: May 29, 2023 8:27:35 AM
* REW Settings:
*  C-weighting compensation: Off
*  Target level: 75.0 dB
* Note: ; Measurement imported from C:\Users\marcu\OneDrive\Desktop\audio_db\Simgot EN1000 - stock - Foam R.txt Format: Comma/Tab/Space delimited data 54613 values loaded, 0 Hz to 20,000 Hz 
* Measurement: Rimgot EN1000 - stock - Foam
* Smoothing: None
* Frequency Step: 1/48 octave
* Start Frequency: 1.000 Hz
*
* Freq(Hz)	SPL(dB)	Phase(degrees)
1.000000	62.208	-58.6560
1.015000	62.043	-59.4795
1.030000	61.873	-60.2951
1.044000	61.708	-61.0485
1.060000	61.513	-61.8997
1.075000	61.323	-62.6876
1.090000	61.127	-63.4651
1.106000	60.910	-64.2973
1.120000	60.722	-65.1082
1.138000	60.483	-66.2698
1.150000	60.325	-67.1068
1.172000	60.034	-68.7425
1.180000	59.928	-69.3623
1.206000	59.578	-71.4322
1.220000	59.384	-72.5620
1.241000	59.086	-74.2435
1.250000	58.954	-74.9506
1.265000	58.729	-76.0987
1.280000	58.495	-77.1961
1.315000	57.911	-79.4753
1.320000	57.822	-79.7606
1.340000	57.454	-80.7786
1.360000	57.061	-81.5732
1.380000	56.641	-82.1087
1.400000	56.191	-82.3496
1.430000	55.454	-82.0810
1.450000	54.917	-81.4299
1.475000	54.180	-80.0199
1.500000	53.279	-77.9073
1.525000	52.221	-75.1579
1.550000	51.040	-71.8521
1.575000	49.770	-68.0705
1.600000	48.445	-63.8936
1.625000	47.098	-59.4019
1.650000	45.764	-54.6760
1.675000	44.475	-49.7964
1.700000	43.267	-44.8437
1.725000	42.172	-39.8983
1.750000	41.225	-35.0407
1.775000	40.459	-30.3516
1.800000	39.909	-25.9115
1.825000	39.607	-21.8008
1.850000	39.583	-17.9041
1.875000	39.827	-13.8240
1.900000	40.303	-9.5986
1.925000	40.978	-5.2862
1.950000	41.817	-0.9447
1.975000	42.786	3.3678
2.000000	43.852	7.5931
2.030000	45.208	12.4668
2.060000	46.594	17.0310
2.090000	47.951	21.1854
2.120000	49.219	24.8297
2.140000	49.986	26.9262
2.180000	51.253	30.1863
2.200000	51.719	31.2903
2.240000	52.461	32.3651
2.270000	52.919	32.2852
2.300000	53.301	31.5663
2.330000	53.618	30.3168
2.360000	53.879	28.6453
2.400000	54.156	25.9475
2.430000	54.322	23.7128
2.470000	54.507	20.6579
2.500000	54.629	18.4507
2.540000	54.788	15.8259
2.580000	54.957	13.7261
2.620000	55.088	11.6814
2.650000	55.157	10.1053
2.690000	55.211	7.9613
2.720000	55.227	6.3310
2.760000	55.218	4.1419
2.800000	55.180	1.9516
2.850000	55.097	-0.7611
2.900000	54.983	-3.4135
2.950000	54.846	-5.9875
3.000000	54.670	-8.5951
3.040000	54.500	-10.6984
3.070000	54.356	-12.2692
3.110000	54.143	-14.3341
3.150000	53.908	-16.3421
3.200000	53.584	-18.7330
3.250000	53.228	-20.9451
3.300000	52.843	-22.9299
3.350000	52.409	-24.8518
3.400000	51.920	-26.7732
3.450000	51.393	-28.5821
3.500000	50.844	-30.1667
3.550000	50.288	-31.4148
3.600000	49.742	-32.2145
3.650000	49.221	-32.4538
3.700000	48.705	-32.0020
3.750000	48.135	-30.8462
3.820000	47.313	-28.3572
3.870000	46.760	-26.1854
3.950000	46.038	-22.4931
4.000000	45.748	-20.3113
4.060000	45.622	-17.9260
4.120000	45.720	-15.1581
4.180000	45.987	-12.1981
4.250000	46.441	-8.9455
4.310000	46.887	-6.7098
4.370000	47.330	-5.3347
4.440000	47.818	-5.1552
4.500000	48.296	-6.0353
4.550000	48.725	-7.3228
4.620000	49.339	-9.7163
4.680000	49.848	-12.0796
4.750000	50.384	-14.8934
4.820000	50.846	-17.7873
4.870000	51.153	-20.1331
4.940000	51.552	-23.6735
5.000000	51.868	-26.8186
5.080000	52.253	-30.9569
5.150000	52.558	-34.3522
5.220000	52.827	-37.7209
5.300000	53.094	-41.5551
5.380000	53.325	-45.2535
5.450000	53.502	-48.2807
5.520000	53.660	-51.0417
5.600000	53.802	-53.9816
5.700000	53.936	-57.3187
5.800000	54.045	-60.1824
5.900000	54.149	-62.4700
6.000000	54.223	-64.1687
6.080000	54.274	-65.1672
6.150000	54.328	-65.8224
6.220000	54.405	-66.3101
6.300000	54.520	-66.5868
6.400000	54.687	-66.4756
6.500000	54.887	-66.1288
6.600000	55.130	-65.8373
6.700000	55.430	-65.5448
6.800000	55.774	-65.1978
6.900000	56.134	-64.9628
7.000000	56.487	-64.9913
7.100000	56.855	-65.2478
7.200000	57.223	-65.6666
7.300000	57.570	-66.1995
7.400000	57.882	-66.8471
7.500000	58.173	-67.6499
7.620000	58.489	-68.6799
7.750000	58.784	-69.7186
7.880000	59.026	-70.7522
8.000000	59.217	-71.6266
8.120000	59.388	-72.3311
8.250000	59.541	-72.9345
8.380000	59.680	-73.3956
8.500000	59.811	-73.6896
8.620000	59.936	-73.8405
8.750000	60.073	-73.9398
8.850000	60.186	-74.0194
9.000000	60.364	-74.0855
9.120000	60.508	-74.1656
9.250000	60.665	-74.3415
9.380000	60.823	-74.5790
9.500000	60.962	-74.8525
9.620000	61.092	-75.1893
9.750000	61.225	-75.6201
9.880000	61.339	-76.0723
10.000000	61.420	-76.4974
10.150000	61.495	-77.0471
10.300000	61.558	-77.5690
10.440000	61.602	-78.0254
10.600000	61.647	-78.5278
10.750000	61.693	-78.9783
10.900000	61.739	-79.4174
11.060000	61.794	-79.9165
11.200000	61.846	-80.3740
11.380000	61.916	-81.0113
11.500000	61.963	-81.4765
11.720000	62.049	-82.3862
11.800000	62.080	-82.7318
12.060000	62.175	-83.8992
12.200000	62.224	-84.5261
12.410000	62.301	-85.4650
12.500000	62.342	-85.8598
12.650000	62.420	-86.5072
12.800000	62.505	-87.1497
13.150000	62.721	-88.6437
13.200000	62.753	-88.8594
13.400000	62.884	-89.7319
13.600000	63.016	-90.6087
13.800000	63.148	-91.4901
14.000000	63.277	-92.3475
14.300000	63.465	-93.5732
14.500000	63.589	-94.3274
14.750000	63.742	-95.2050
15.000000	63.896	-96.0155
15.250000	64.050	-96.7841
15.500000	64.201	-97.5253
15.750000	64.348	-98.2449
16.000000	64.488	-98.9413
16.250000	64.622	-99.6030
16.500000	64.750	-100.2259
16.750000	64.868	-100.8055
17.000000	64.978	-101.3467
17.250000	65.081	-101.8525
17.500000	65.177	-102.3270
17.750000	65.268	-102.7714
18.000000	65.355	-103.1902
18.250000	65.442	-103.5883
18.500000	65.530	-103.9883
18.750000	65.621	-104.4117
19.000000	65.713	-104.8785
19.250000	65.804	-105.4096
19.500000	65.890	-105.9972
19.750000	65.970	-106.6341
20.000000	66.044	-107.2905
20.299999	66.126	-108.0756
20.600000	66.206	-108.8430
20.900000	66.288	-109.5963
21.200001	66.375	-110.3597
21.400000	66.434	-110.8847
21.799999	66.546	-111.9549
22.000000	66.598	-112.4805
22.400000	66.697	-113.4519
22.700001	66.773	-114.0774
23.000000	66.857	-114.6220
23.299999	66.955	-115.1386
23.600000	67.062	-115.6794
24.000000	67.210	-116.4893
24.299999	67.311	-117.1499
24.700001	67.424	-118.0218
25.000000	67.496	-118.6060
25.400000	67.588	-119.2584
25.799999	67.687	-119.8254
26.200001	67.796	-120.4271
26.500000	67.877	-120.9558
26.900000	67.969	-121.7667
27.200001	68.021	-122.4079
27.600000	68.066	-123.2159
28.000000	68.094	-123.8843
28.500000	68.134	-124.5121
29.000000	68.202	-125.0588
29.500000	68.295	-125.7008
30.000000	68.391	-126.4920
30.400000	68.460	-127.1809
30.700001	68.507	-127.6973
31.100000	68.565	-128.3640
31.500000	68.622	-129.0053
32.000000	68.692	-129.7767
32.500000	68.759	-130.5065
33.000000	68.824	-131.1906
33.500000	68.891	-131.8477
34.000000	68.956	-132.4920
34.500000	69.017	-133.1109
35.000000	69.081	-133.7105
35.500000	69.148	-134.3510
36.000000	69.208	-135.0738
36.500000	69.249	-135.8139
37.000000	69.277	-136.4461
37.500000	69.314	-136.9577
38.200001	69.400	-137.7575
38.700001	69.454	-138.5129
39.500000	69.484	-139.6145
40.000000	69.505	-140.0215
40.599998	69.577	-140.4523
41.200001	69.672	-141.1907
41.799999	69.725	-142.1463
42.500000	69.733	-143.0362
43.099998	69.752	-143.5174
43.700001	69.798	-144.0191
44.400002	69.850	-144.7688
45.000000	69.879	-145.4159
45.500000	69.902	-145.9091
46.200001	69.940	-146.6086
46.799999	69.968	-147.2426
47.500000	69.992	-147.9369
48.200001	70.016	-148.5448
48.700001	70.039	-148.9569
49.400002	70.074	-149.5531
50.000000	70.104	-150.0951
50.799999	70.132	-150.8268
51.500000	70.151	-151.4351
52.200001	70.167	-152.0175
53.000000	70.184	-152.6644
53.799999	70.203	-153.2884
54.500000	70.225	-153.8378
55.200001	70.249	-154.4137
56.000000	70.273	-155.1051
57.000000	70.292	-155.9403
58.000000	70.314	-156.6611
59.000000	70.343	-157.4361
60.000000	70.345	-158.1950
60.799999	70.345	-158.6487
61.500000	70.357	-159.0375
62.200001	70.369	-159.4742
63.000000	70.378	-159.9807
64.000000	70.387	-160.6383
65.000000	70.386	-161.2995
66.000000	70.387	-161.9240
67.000000	70.386	-162.5564
68.000000	70.385	-163.1183
69.000000	70.390	-163.7029
70.000000	70.387	-164.2791
71.000000	70.383	-164.8128
72.000000	70.374	-165.3397
73.000000	70.366	-165.8249
74.000000	70.361	-166.3356
75.000000	70.349	-166.8835
76.199997	70.326	-167.4700
77.500000	70.321	-168.0162
78.800003	70.325	-168.6959
80.000000	70.310	-169.3013
81.199997	70.295	-169.7800
82.500000	70.293	-170.3348
83.800003	70.270	-170.9556
85.000000	70.242	-171.4161
86.199997	70.221	-171.8461
87.500000	70.213	-172.3116
88.500000	70.204	-172.7826
90.000000	70.167	-173.3787
91.199997	70.148	-173.7813
92.500000	70.125	-174.2325
93.800003	70.107	-174.6559
95.000000	70.088	-175.0849
96.199997	70.065	-175.4885
97.500000	70.039	-175.8949
98.800003	70.015	-176.2876
100.000000	69.994	-176.6553
101.500000	69.964	-177.1114
103.000000	69.933	-177.5468
104.400002	69.905	-177.9246
106.000000	69.872	-178.3632
107.500000	69.839	-178.7412
109.000000	69.807	-179.1136
110.599998	69.774	-179.5069
112.000000	69.744	-179.8497
113.800003	69.706	179.7337
115.000000	69.681	179.4638
117.199997	69.631	178.9922
118.000000	69.613	178.8290
120.599998	69.556	178.3164
122.000000	69.528	178.0409
124.099998	69.483	177.6329
125.000000	69.463	177.4687
126.500000	69.433	177.2133
128.000000	69.404	176.9540
131.500000	69.337	176.3603
132.000000	69.327	176.2829
134.000000	69.292	175.9883
136.000000	69.255	175.7072
138.000000	69.219	175.4348
140.000000	69.180	175.1512
143.000000	69.122	174.7563
145.000000	69.083	174.5228
147.500000	69.037	174.2542
150.000000	68.992	173.9935
152.500000	68.945	173.7259
155.000000	68.896	173.4906
157.500000	68.849	173.2753
160.000000	68.800	173.0633
162.500000	68.744	172.8618
165.000000	68.686	172.6643
167.500000	68.626	172.4980
170.000000	68.568	172.3413
172.500000	68.510	172.1810
175.000000	68.454	172.0379
177.500000	68.397	171.9127
180.000000	68.341	171.8040
182.500000	68.284	171.6956
185.000000	68.230	171.5921
187.500000	68.176	171.4992
190.000000	68.122	171.4266
192.500000	68.069	171.3530
195.000000	68.015	171.2863
197.500000	67.964	171.2231
200.000000	67.914	171.1648
203.000000	67.859	171.1123
206.000000	67.807	171.0774
209.000000	67.755	171.0536
212.000000	67.702	171.0302
214.000000	67.666	171.0112
218.000000	67.601	171.0051
220.000000	67.569	171.0074
224.000000	67.503	171.0078
227.000000	67.452	171.0188
230.000000	67.406	171.0342
233.000000	67.361	171.0651
236.000000	67.314	171.1115
240.000000	67.252	171.1911
243.000000	67.209	171.2338
247.000000	67.154	171.2979
250.000000	67.110	171.3640
254.000000	67.053	171.4749
258.000000	67.001	171.5805
262.000000	66.950	171.6696
265.000000	66.912	171.7366
269.000000	66.863	171.8605
272.000000	66.827	171.9709
276.000000	66.777	172.1229
280.000000	66.729	172.2626
285.000000	66.674	172.4421
290.000000	66.619	172.6235
295.000000	66.563	172.8329
300.000000	66.510	173.0508
304.000000	66.473	173.2211
307.000000	66.443	173.3529
311.000000	66.403	173.5352
315.000000	66.366	173.7186
320.000000	66.320	173.9514
325.000000	66.274	174.1801
330.000000	66.229	174.4084
335.000000	66.186	174.6568
340.000000	66.146	174.9141
345.000000	66.106	175.1668
350.000000	66.065	175.3962
355.000000	66.025	175.6553
360.000000	65.987	175.9182
365.000000	65.950	176.1711
370.000000	65.912	176.4417
375.000000	65.876	176.7234
382.000000	65.826	177.0911
387.000000	65.793	177.3749
395.000000	65.741	177.8106
400.000000	65.708	178.1077
406.000000	65.673	178.4684
412.000000	65.638	178.8130
418.000000	65.602	179.1587
425.000000	65.566	179.5839
431.000000	65.535	179.9490
437.000000	65.505	-179.6965
444.000000	65.471	-179.2591
450.000000	65.442	-178.8750
455.000000	65.422	-178.5836
462.000000	65.391	-178.1450
468.000000	65.367	-177.7723
475.000000	65.339	-177.3272
482.000000	65.314	-176.8858
487.000000	65.296	-176.5567
494.000000	65.271	-176.0993
500.000000	65.252	-175.7073
508.000000	65.229	-175.2052
515.000000	65.207	-174.7446
522.000000	65.190	-174.3102
530.000000	65.170	-173.7814
538.000000	65.151	-173.2186
545.000000	65.137	-172.7487
552.000000	65.120	-172.2873
560.000000	65.109	-171.7062
570.000000	65.100	-171.0700
580.000000	65.084	-170.3984
590.000000	65.074	-169.7148
600.000000	65.065	-169.0260
608.000000	65.060	-168.4576
615.000000	65.056	-167.9485
622.000000	65.052	-167.4368
630.000000	65.051	-166.8660
640.000000	65.051	-166.1610
650.000000	65.056	-165.4471
660.000000	65.061	-164.7162
670.000000	65.069	-163.9788
680.000000	65.079	-163.2425
690.000000	65.092	-162.5113
700.000000	65.107	-161.7762
710.000000	65.125	-161.0300
720.000000	65.147	-160.2634
730.000000	65.169	-159.4970
740.000000	65.196	-158.7487
750.000000	65.224	-157.9913
762.000000	65.263	-157.0619
775.000000	65.305	-156.0641
788.000000	65.357	-155.0644
800.000000	65.407	-154.1302
812.000000	65.452	-153.1939
825.000000	65.498	-152.1718
838.000000	65.542	-151.1109
850.000000	65.578	-150.0237
862.000000	65.610	-148.6762
875.000000	65.725	-146.6355
885.000000	65.959	-145.2135
900.000000	66.347	-144.7027
912.000000	66.562	-145.2762
925.000000	66.587	-145.7437
938.000000	66.603	-145.2884
950.000000	66.665	-144.6892
962.000000	66.751	-144.0891
975.000000	66.856	-143.4835
988.000000	66.968	-142.9259
1000.000000	67.077	-142.4456
1015.000000	67.227	-141.8940
1030.000000	67.382	-141.3968
1044.000000	67.527	-140.9910
1060.000000	67.694	-140.5782
1075.000000	67.848	-140.2418
1090.000000	68.000	-139.9557
1106.000000	68.159	-139.7017
1120.000000	68.297	-139.4923
1138.000000	68.470	-139.2743
1150.000000	68.583	-139.1573
1172.000000	68.784	-138.9767
1180.000000	68.857	-138.9263
1206.000000	69.083	-138.7834
1220.000000	69.200	-138.7290
1241.000000	69.368	-138.6762
1250.000000	69.435	-138.6592
1265.000000	69.532	-138.6286
1280.000000	69.621	-138.6035
1315.000000	69.820	-138.5903
1320.000000	69.848	-138.5887
1340.000000	69.958	-138.5762
1360.000000	70.064	-138.5773
1380.000000	70.171	-138.5914
1400.000000	70.277	-138.6037
1430.000000	70.435	-138.6467
1450.000000	70.538	-138.6722
1475.000000	70.668	-138.7135
1500.000000	70.800	-138.7769
1525.000000	70.933	-138.8558
1550.000000	71.064	-138.9539
1575.000000	71.200	-139.0788
1600.000000	71.341	-139.2285
1625.000000	71.509	-139.4121
1650.000000	71.683	-139.6253
1675.000000	71.860	-139.8725
1700.000000	72.034	-140.1646
1725.000000	72.211	-140.5017
1750.000000	72.386	-140.8746
1775.000000	72.561	-141.3003
1800.000000	72.734	-141.7771
1825.000000	72.906	-142.3047
1850.000000	73.077	-142.8794
1875.000000	73.244	-143.5188
1900.000000	73.407	-144.2176
1925.000000	73.567	-144.9706
1950.000000	73.722	-145.7782
1975.000000	73.871	-146.6475
2000.000000	74.014	-147.5739
2030.000000	74.170	-148.7596
2060.000000	74.312	-150.0103
2090.000000	74.442	-151.3337
2120.000000	74.559	-152.7216
2140.000000	74.630	-153.6785
2180.000000	74.747	-155.6456
2200.000000	74.795	-156.6518
2240.000000	74.871	-158.6987
2270.000000	74.908	-160.2399
2300.000000	74.929	-161.7732
2330.000000	74.934	-163.3006
2360.000000	74.923	-164.7976
2400.000000	74.884	-166.7218
2430.000000	74.840	-168.1059
2470.000000	74.762	-169.8662
2500.000000	74.692	-171.1083
2540.000000	74.580	-172.6400
2580.000000	74.454	-174.0358
2620.000000	74.318	-175.2967
2650.000000	74.210	-176.1470
2690.000000	74.060	-177.1596
2720.000000	73.945	-177.8365
2760.000000	73.791	-178.6158
2800.000000	73.637	-179.2692
2850.000000	73.448	-179.9346
2900.000000	73.264	179.5666
2950.000000	73.085	179.2181
3000.000000	72.914	179.0056
3040.000000	72.786	178.9218
3070.000000	72.694	178.9052
3110.000000	72.579	178.9355
3150.000000	72.469	179.0241
3200.000000	72.343	179.2148
3250.000000	72.227	179.4640
3300.000000	72.125	179.7811
3350.000000	72.036	-179.8557
3400.000000	71.961	-179.4493
3450.000000	71.897	-179.0177
3500.000000	71.844	-178.5453
3550.000000	71.803	-178.0587
3600.000000	71.777	-177.5604
3650.000000	71.764	-177.0502
3700.000000	71.762	-176.5495
3750.000000	71.770	-176.0396
3820.000000	71.802	-175.3640
3870.000000	71.840	-174.9047
3950.000000	71.927	-174.2207
4000.000000	71.996	-173.8471
4060.000000	72.086	-173.4531
4120.000000	72.187	-173.1277
4180.000000	72.305	-172.9000
4250.000000	72.462	-172.7679
4310.000000	72.608	-172.7762
4370.000000	72.760	-172.9213
4440.000000	72.943	-173.2789
4500.000000	73.101	-173.7639
4550.000000	73.221	-174.2494
4620.000000	73.394	-174.8126
4680.000000	73.606	-175.4234
4750.000000	73.858	-176.8696
4820.000000	74.053	-178.7733
4870.000000	74.165	179.7334
4940.000000	74.289	177.4561
5000.000000	74.357	175.3407
5080.000000	74.373	172.3520
5150.000000	74.326	169.6275
5220.000000	74.225	166.8692
5300.000000	74.037	163.7993
5380.000000	73.776	160.9182
5450.000000	73.495	158.6381
5520.000000	73.173	156.6121
5600.000000	72.767	154.6649
5700.000000	72.222	152.7827
5800.000000	71.655	151.5106
5900.000000	71.076	150.8136
6000.000000	70.500	150.6365
6080.000000	70.055	150.8139
6150.000000	69.680	151.1773
6220.000000	69.317	151.7331
6300.000000	68.932	152.5502
6400.000000	68.528	153.8418
6500.000000	68.170	155.3731
6600.000000	67.849	157.1120
6700.000000	67.566	159.0181
6800.000000	67.318	161.0795
6900.000000	67.101	163.2789
7000.000000	66.922	165.5920
7100.000000	66.792	167.9846
7200.000000	66.709	170.3685
7300.000000	66.662	172.7250
7400.000000	66.652	175.0679
7500.000000	66.679	177.3917
7620.000000	66.768	-179.8880
7750.000000	66.938	-177.0857
7880.000000	67.187	-174.5047
8000.000000	67.467	-172.4214
8120.000000	67.744	-170.7229
8250.000000	68.103	-169.4633
8380.000000	68.541	-169.0237
8500.000000	69.010	-169.5671
8620.000000	69.511	-171.2656
8750.000000	70.026	-174.6940
8850.000000	70.342	-178.5558
9000.000000	70.562	173.8589
9120.000000	70.423	166.9010
9250.000000	69.921	159.5805
9380.000000	69.110	153.4596
9500.000000	68.187	149.3484
9620.000000	67.188	146.7613
9750.000000	66.101	145.4676
9880.000000	65.060	145.4501
10000.000000	64.183	146.3017
10150.000000	63.227	148.2711
10300.000000	62.399	151.0402
10440.000000	61.734	154.2686
10600.000000	61.189	158.3019
10750.000000	60.748	161.6378
10900.000000	60.354	165.3960
11060.000000	60.060	169.6363
11200.000000	59.900	173.3315
11380.000000	59.814	177.9908
11500.000000	59.835	-179.0570
11720.000000	60.036	-174.1703
11800.000000	60.162	-172.6132
12060.000000	60.753	-168.6980
12200.000000	61.205	-167.6034
12410.000000	62.036	-168.4667
12500.000000	62.359	-170.1846
12650.000000	62.710	-174.5967
12800.000000	62.773	179.6138
13150.000000	61.595	165.0161
13200.000000	61.281	163.3270
13400.000000	59.800	158.4786
13600.000000	58.159	156.6765
13800.000000	56.536	157.3829
14000.000000	55.030	159.8959
14300.000000	53.040	165.8156
14500.000000	51.897	170.6430
14750.000000	50.652	177.2505
15000.000000	49.605	-175.7471
15250.000000	48.727	-168.5270
15500.000000	48.003	-161.2309
15750.000000	47.431	-154.0372
16000.000000	47.051	-146.7807
16250.000000	47.013	-139.5969
16500.000000	47.173	-132.5243
16750.000000	47.442	-125.5159
17000.000000	47.833	-118.8097
17250.000000	48.338	-112.4582
17500.000000	48.957	-106.5833
17750.000000	49.711	-101.4442
18000.000000	50.567	-97.5240
18250.000000	51.502	-95.1663
18500.000000	52.437	-95.1411
18750.000000	53.196	-97.9183
19000.000000	53.490	-103.6724
19250.000000	53.076	-109.8362
19500.000000	52.126	-113.9445
19750.000000	50.938	-115.8607
