* Measurement data measured by REW V5.20.13
* Source: C:\Users\marcu\OneDrive\Desktop\audio_db\Tripowin Piccolo Foam R.txt
* Format: Comma/Tab/Space delimited data
* Dated: Jul 16, 2023 6:19:09 PM
* REW Settings:
*  C-weighting compensation: Off
*  Target level: 75.0 dB
* Note: ; Measurement imported from C:\Users\marcu\OneDrive\Desktop\audio_db\Tripowin Piccolo Foam R.txt Format: Comma/Tab/Space delimited data 54613 values loaded, 0 Hz to 20,000 Hz 
* Measurement: Tripowin Piccolo Foam R
* Smoothing: None
* Frequency Step: 1/48 octave
* Start Frequency: 1.000 Hz
*
* Freq(Hz)	SPL(dB)	Phase(degrees)
1.000000	62.725	-64.6451
1.015000	62.545	-65.5529
1.030000	62.357	-66.4499
1.044000	62.175	-67.2767
1.060000	61.957	-68.2083
1.075000	61.744	-69.0680
1.090000	61.522	-69.9136
1.106000	61.273	-70.8244
1.120000	61.045	-71.7658
1.138000	60.738	-73.1831
1.150000	60.525	-74.2372
1.172000	60.119	-76.3472
1.180000	59.966	-77.1587
1.206000	59.455	-79.8960
1.220000	59.170	-81.3993
1.241000	58.733	-83.6356
1.250000	58.542	-84.5721
1.265000	58.219	-86.0834
1.280000	57.892	-87.5103
1.315000	57.114	-90.3674
1.320000	57.002	-90.7076
1.340000	56.550	-91.8606
1.360000	56.095	-92.6353
1.380000	55.639	-92.9709
1.400000	55.184	-92.8064
1.430000	54.507	-91.4888
1.450000	54.060	-89.8079
1.475000	53.501	-86.6552
1.500000	52.873	-81.9708
1.525000	52.175	-75.8769
1.550000	51.427	-68.6051
1.575000	50.647	-60.3871
1.600000	49.854	-51.4545
1.625000	49.067	-42.0389
1.650000	48.306	-32.3719
1.675000	47.589	-22.6850
1.700000	46.936	-13.2098
1.725000	46.366	-4.1781
1.750000	45.897	4.1787
1.775000	45.550	11.6289
1.800000	45.342	17.9410
1.825000	45.293	22.8833
1.850000	45.428	26.4475
1.875000	45.757	29.0986
1.900000	46.257	30.9453
1.925000	46.900	32.0764
1.950000	47.662	32.5808
1.975000	48.516	32.5476
2.000000	49.438	32.0655
2.030000	50.596	31.0199
2.060000	51.769	29.6096
2.090000	52.914	27.9885
2.120000	53.985	26.3101
2.140000	54.636	25.2352
2.180000	55.729	23.3962
2.200000	56.144	22.7199
2.240000	56.819	21.2711
2.270000	57.236	19.9254
2.300000	57.587	18.3936
2.330000	57.881	16.7079
2.360000	58.127	14.9006
2.400000	58.394	12.3575
2.430000	58.560	10.3920
2.470000	58.755	7.7552
2.500000	58.891	5.8073
2.540000	59.076	3.3110
2.580000	59.278	0.9761
2.620000	59.454	-1.3527
2.650000	59.563	-3.1169
2.690000	59.681	-5.4813
2.720000	59.752	-7.2564
2.760000	59.825	-9.6145
2.800000	59.877	-11.9503
2.850000	59.920	-14.8176
2.900000	59.945	-17.6017
2.950000	59.958	-20.2877
3.000000	59.942	-22.9527
3.040000	59.908	-25.0666
3.070000	59.871	-26.6306
3.110000	59.810	-28.6743
3.150000	59.737	-30.6556
3.200000	59.632	-33.0193
3.250000	59.517	-35.2279
3.300000	59.397	-37.2499
3.350000	59.257	-39.1338
3.400000	59.092	-40.9122
3.450000	58.910	-42.5608
3.500000	58.722	-44.0555
3.550000	58.537	-45.3721
3.600000	58.363	-46.4863
3.650000	58.211	-47.3740
3.700000	58.076	-47.9933
3.750000	57.935	-48.3202
3.820000	57.747	-48.3926
3.870000	57.631	-48.2477
3.950000	57.506	-47.8357
4.000000	57.481	-47.5559
4.060000	57.518	-47.2297
4.120000	57.623	-46.6801
4.180000	57.783	-45.9839
4.250000	58.023	-45.1590
4.310000	58.261	-44.5892
4.370000	58.517	-44.2825
4.440000	58.836	-44.3570
4.500000	59.156	-44.6658
4.550000	59.445	-45.0682
4.620000	59.867	-45.8261
4.680000	60.225	-46.6313
4.750000	60.616	-47.7193
4.820000	60.976	-49.0065
4.870000	61.230	-50.0913
4.940000	61.575	-51.7743
5.000000	61.858	-53.3079
5.080000	62.208	-55.3803
5.150000	62.483	-57.1372
5.220000	62.731	-58.9471
5.300000	62.985	-61.0745
5.380000	63.211	-63.1803
5.450000	63.389	-64.9358
5.520000	63.550	-66.5593
5.600000	63.705	-68.3319
5.700000	63.864	-70.4129
5.800000	64.000	-72.2739
5.900000	64.129	-73.8440
6.000000	64.234	-75.1270
6.080000	64.310	-75.9787
6.150000	64.378	-76.6163
6.220000	64.457	-77.1699
6.300000	64.558	-77.6648
6.400000	64.692	-78.0609
6.500000	64.840	-78.3346
6.600000	65.008	-78.6196
6.700000	65.202	-78.8819
6.800000	65.417	-79.1028
6.900000	65.641	-79.3752
7.000000	65.864	-79.7818
7.100000	66.098	-80.2945
7.200000	66.334	-80.8904
7.300000	66.560	-81.5606
7.400000	66.767	-82.3160
7.500000	66.965	-83.1697
7.620000	67.184	-84.2462
7.750000	67.392	-85.3907
7.880000	67.567	-86.5600
8.000000	67.708	-87.6013
8.120000	67.832	-88.5389
8.250000	67.945	-89.4660
8.380000	68.046	-90.2975
8.500000	68.138	-90.9625
8.620000	68.224	-91.5259
8.750000	68.318	-92.0749
8.850000	68.396	-92.4782
9.000000	68.518	-93.0175
9.120000	68.619	-93.4487
9.250000	68.732	-93.9592
9.380000	68.850	-94.4914
9.500000	68.957	-95.0180
9.620000	69.061	-95.5931
9.750000	69.172	-96.2614
9.880000	69.268	-96.9538
10.000000	69.337	-97.6122
10.150000	69.403	-98.4606
10.300000	69.457	-99.2975
10.440000	69.495	-100.0681
10.600000	69.530	-100.9341
10.750000	69.564	-101.7208
10.900000	69.596	-102.4906
11.060000	69.630	-103.3102
11.200000	69.661	-104.0229
11.380000	69.701	-104.9494
11.500000	69.728	-105.5791
11.720000	69.774	-106.7455
11.800000	69.790	-107.1730
12.060000	69.837	-108.5652
12.200000	69.858	-109.2975
12.410000	69.889	-110.3721
12.500000	69.908	-110.8169
12.650000	69.949	-111.5377
12.800000	69.994	-112.2382
13.150000	70.108	-113.8008
13.200000	70.125	-114.0203
13.400000	70.195	-114.8893
13.600000	70.266	-115.7514
13.800000	70.335	-116.6118
14.000000	70.403	-117.4573
14.300000	70.498	-118.6885
14.500000	70.557	-119.4673
14.750000	70.629	-120.3920
15.000000	70.700	-121.2646
15.250000	70.770	-122.1030
15.500000	70.838	-122.9231
15.750000	70.904	-123.7311
16.000000	70.965	-124.5280
16.250000	71.022	-125.2990
16.500000	71.077	-126.0374
16.750000	71.127	-126.7336
17.000000	71.174	-127.3968
17.250000	71.219	-128.0378
17.500000	71.264	-128.6721
17.750000	71.307	-129.3145
18.000000	71.346	-129.9649
18.250000	71.381	-130.6220
18.500000	71.411	-131.2737
18.750000	71.438	-131.9161
19.000000	71.464	-132.5457
19.250000	71.489	-133.1695
19.500000	71.514	-133.7960
19.750000	71.540	-134.4310
20.000000	71.565	-135.0781
20.299999	71.594	-135.8584
20.600000	71.620	-136.6273
20.900000	71.643	-137.3683
21.200001	71.667	-138.0732
21.400000	71.686	-138.5280
21.799999	71.726	-139.4204
22.000000	71.748	-139.8662
22.400000	71.792	-140.7646
22.700001	71.821	-141.4317
23.000000	71.845	-142.0708
23.299999	71.867	-142.6646
23.600000	71.889	-143.2107
24.000000	71.924	-143.8831
24.299999	71.953	-144.3757
24.700001	71.995	-145.0544
25.000000	72.024	-145.5880
25.400000	72.052	-146.3117
25.799999	72.070	-147.0048
26.200001	72.084	-147.6438
26.500000	72.096	-148.1044
26.900000	72.115	-148.7377
27.200001	72.127	-149.2492
27.600000	72.133	-149.9668
28.000000	72.123	-150.6506
28.500000	72.103	-151.3396
29.000000	72.103	-151.8662
29.500000	72.135	-152.4231
30.000000	72.176	-153.1582
30.400000	72.195	-153.8251
30.700001	72.199	-154.3070
31.100000	72.199	-154.8689
31.500000	72.203	-155.3491
32.000000	72.218	-155.9239
32.500000	72.236	-156.5365
33.000000	72.242	-157.1438
33.500000	72.245	-157.6826
34.000000	72.251	-158.1740
34.500000	72.261	-158.6887
35.000000	72.268	-159.2452
35.500000	72.266	-159.8035
36.000000	72.261	-160.3335
36.500000	72.254	-160.8459
37.000000	72.248	-161.3569
37.500000	72.240	-161.8585
38.200001	72.231	-162.5226
38.700001	72.229	-162.9861
39.500000	72.229	-163.7572
40.000000	72.226	-164.2399
40.599998	72.222	-164.7856
41.200001	72.220	-165.3040
41.799999	72.219	-165.8344
42.500000	72.210	-166.4642
43.099998	72.192	-166.9513
43.700001	72.178	-167.3716
44.400002	72.170	-167.8462
45.000000	72.167	-168.2901
45.500000	72.163	-168.6780
46.200001	72.152	-169.2165
46.799999	72.143	-169.6649
47.500000	72.131	-170.1731
48.200001	72.120	-170.6580
48.700001	72.113	-170.9930
49.400002	72.105	-171.4667
50.000000	72.097	-171.8844
50.799999	72.081	-172.4257
51.500000	72.064	-172.8549
52.200001	72.050	-173.2591
53.000000	72.036	-173.7223
53.799999	72.021	-174.1868
54.500000	72.006	-174.5932
55.200001	71.990	-174.9919
56.000000	71.970	-175.4174
57.000000	71.950	-175.9460
58.000000	71.923	-176.5059
59.000000	71.893	-176.9812
60.000000	71.879	-177.4387
60.799999	71.868	-177.8696
61.500000	71.852	-178.2536
62.200001	71.833	-178.6069
63.000000	71.812	-178.9693
64.000000	71.790	-179.4096
65.000000	71.765	-179.8607
66.000000	71.738	179.7149
67.000000	71.708	179.3012
68.000000	71.676	178.9281
69.000000	71.651	178.5471
70.000000	71.622	178.1360
71.000000	71.593	177.7591
72.000000	71.566	177.3493
73.000000	71.534	176.9681
74.000000	71.507	176.5966
75.000000	71.471	176.2191
76.199997	71.437	175.9325
77.500000	71.420	175.4660
78.800003	71.379	174.9949
80.000000	71.342	174.5987
81.199997	71.297	174.2303
82.500000	71.256	173.8905
83.800003	71.220	173.5057
85.000000	71.181	173.1519
86.199997	71.144	172.8506
87.500000	71.111	172.5226
88.500000	71.083	172.2616
90.000000	71.037	171.9052
91.199997	71.004	171.6369
92.500000	70.966	171.3130
93.800003	70.927	171.0144
95.000000	70.893	170.7308
96.199997	70.859	170.4587
97.500000	70.822	170.1848
98.800003	70.783	169.9232
100.000000	70.747	169.6915
101.500000	70.700	169.4078
103.000000	70.655	169.1311
104.400002	70.616	168.8664
106.000000	70.570	168.5671
107.500000	70.530	168.3113
109.000000	70.486	168.0590
110.599998	70.438	167.8150
112.000000	70.398	167.6188
113.800003	70.349	167.3427
115.000000	70.314	167.1657
117.199997	70.254	166.8723
118.000000	70.232	166.7563
120.599998	70.153	166.4509
122.000000	70.113	166.2805
124.099998	70.053	166.0352
125.000000	70.031	165.9345
126.500000	69.997	165.7586
128.000000	69.961	165.6026
131.500000	69.875	165.2777
132.000000	69.862	165.2332
134.000000	69.815	165.0651
136.000000	69.772	164.8819
138.000000	69.727	164.7068
140.000000	69.678	164.5627
143.000000	69.607	164.3643
145.000000	69.562	164.2517
147.500000	69.508	164.0736
150.000000	69.451	163.9281
152.500000	69.396	163.8000
155.000000	69.342	163.7041
157.500000	69.286	163.5923
160.000000	69.232	163.4983
162.500000	69.170	163.4116
165.000000	69.103	163.3542
167.500000	69.034	163.3094
170.000000	68.968	163.2435
172.500000	68.911	163.1658
175.000000	68.852	163.1094
177.500000	68.789	163.1047
180.000000	68.722	163.1059
182.500000	68.658	163.0894
185.000000	68.602	163.0753
187.500000	68.548	163.0594
190.000000	68.489	163.0582
192.500000	68.425	163.0753
195.000000	68.366	163.1147
197.500000	68.314	163.1473
200.000000	68.263	163.1786
203.000000	68.202	163.2207
206.000000	68.139	163.2617
209.000000	68.082	163.3147
212.000000	68.028	163.3836
214.000000	67.993	163.4404
218.000000	67.923	163.5659
220.000000	67.888	163.6177
224.000000	67.815	163.7109
227.000000	67.763	163.8104
230.000000	67.714	163.9368
233.000000	67.666	164.0604
236.000000	67.614	164.1930
240.000000	67.543	164.4374
243.000000	67.501	164.5151
247.000000	67.441	164.6644
250.000000	67.396	164.8058
254.000000	67.336	164.9655
258.000000	67.280	165.1340
262.000000	67.228	165.3536
265.000000	67.192	165.5283
269.000000	67.141	165.7330
272.000000	67.104	165.8713
276.000000	67.057	166.0676
280.000000	67.008	166.2858
285.000000	66.950	166.5804
290.000000	66.894	166.8509
295.000000	66.837	167.1255
300.000000	66.784	167.4033
304.000000	66.742	167.6415
307.000000	66.709	167.8251
311.000000	66.670	168.0690
315.000000	66.632	168.2942
320.000000	66.584	168.5887
325.000000	66.532	168.9110
330.000000	66.487	169.2511
335.000000	66.446	169.5608
340.000000	66.403	169.8759
345.000000	66.357	170.2125
350.000000	66.312	170.5480
355.000000	66.272	170.8612
360.000000	66.237	171.1752
365.000000	66.201	171.5341
370.000000	66.163	171.8752
375.000000	66.125	172.2331
382.000000	66.075	172.7201
387.000000	66.042	173.0513
395.000000	65.993	173.6237
400.000000	65.958	173.9868
406.000000	65.921	174.4047
412.000000	65.890	174.8317
418.000000	65.862	175.2606
425.000000	65.826	175.7955
431.000000	65.797	176.2322
437.000000	65.770	176.6745
444.000000	65.743	177.1759
450.000000	65.717	177.6317
455.000000	65.696	177.9947
462.000000	65.670	178.5170
468.000000	65.648	178.9843
475.000000	65.630	179.5319
482.000000	65.614	-179.9602
487.000000	65.596	-179.5971
494.000000	65.576	-179.0863
500.000000	65.562	-178.6336
508.000000	65.549	-177.9939
515.000000	65.540	-177.4535
522.000000	65.530	-176.9416
530.000000	65.521	-176.3666
538.000000	65.516	-175.7649
545.000000	65.515	-175.2158
552.000000	65.514	-174.6668
560.000000	65.512	-174.0707
570.000000	65.510	-173.3772
580.000000	65.514	-172.6498
590.000000	65.523	-171.8556
600.000000	65.535	-171.1097
608.000000	65.544	-170.5576
615.000000	65.551	-170.0713
622.000000	65.561	-169.5682
630.000000	65.578	-168.9869
640.000000	65.601	-168.2508
650.000000	65.622	-167.5362
660.000000	65.648	-166.8296
670.000000	65.679	-166.1511
680.000000	65.709	-165.4481
690.000000	65.740	-164.7661
700.000000	65.776	-164.0993
710.000000	65.813	-163.4413
720.000000	65.852	-162.7742
730.000000	65.892	-162.1022
740.000000	65.935	-161.4424
750.000000	65.977	-160.8032
762.000000	66.032	-160.0540
775.000000	66.094	-159.2274
788.000000	66.161	-158.3875
800.000000	66.221	-157.6555
812.000000	66.280	-156.9437
825.000000	66.347	-156.1566
838.000000	66.415	-155.3738
850.000000	66.484	-154.6671
862.000000	66.556	-153.9953
875.000000	66.636	-153.2748
885.000000	66.699	-152.7346
900.000000	66.801	-151.9465
912.000000	66.886	-151.3189
925.000000	66.981	-150.6806
938.000000	67.078	-150.0816
950.000000	67.170	-149.5563
962.000000	67.266	-149.0589
975.000000	67.373	-148.5444
988.000000	67.481	-148.0679
1000.000000	67.583	-147.6625
1015.000000	67.720	-147.1662
1030.000000	67.862	-146.7003
1044.000000	67.996	-146.3271
1060.000000	68.151	-145.9627
1075.000000	68.293	-145.6448
1090.000000	68.435	-145.3584
1106.000000	68.583	-145.0886
1120.000000	68.712	-144.9037
1138.000000	68.876	-144.6851
1150.000000	68.982	-144.5888
1172.000000	69.174	-144.4325
1180.000000	69.243	-144.3847
1206.000000	69.459	-144.2606
1220.000000	69.572	-144.2358
1241.000000	69.735	-144.2295
1250.000000	69.800	-144.2368
1265.000000	69.893	-144.2432
1280.000000	69.976	-144.2501
1315.000000	70.164	-144.3462
1320.000000	70.190	-144.3678
1340.000000	70.295	-144.4710
1360.000000	70.396	-144.5650
1380.000000	70.493	-144.6670
1400.000000	70.589	-144.7924
1430.000000	70.732	-145.0375
1450.000000	70.823	-145.2052
1475.000000	70.931	-145.4152
1500.000000	71.036	-145.6511
1525.000000	71.146	-145.9496
1550.000000	71.253	-146.2696
1575.000000	71.353	-146.5969
1600.000000	71.454	-146.9241
1625.000000	71.583	-147.3257
1650.000000	71.718	-147.7819
1675.000000	71.846	-148.2328
1700.000000	71.965	-148.6903
1725.000000	72.079	-149.1965
1750.000000	72.192	-149.7323
1775.000000	72.303	-150.3162
1800.000000	72.406	-150.9373
1825.000000	72.501	-151.5495
1850.000000	72.590	-152.1716
1875.000000	72.676	-152.8435
1900.000000	72.759	-153.5596
1925.000000	72.837	-154.2705
1950.000000	72.903	-154.9789
1975.000000	72.961	-155.6985
2000.000000	73.013	-156.4391
2030.000000	73.066	-157.3297
2060.000000	73.109	-158.2248
2090.000000	73.141	-159.1038
2120.000000	73.161	-159.9500
2140.000000	73.171	-160.5062
2180.000000	73.188	-161.6267
2200.000000	73.193	-162.1753
2240.000000	73.186	-163.1925
2270.000000	73.173	-163.8978
2300.000000	73.162	-164.5923
2330.000000	73.151	-165.2801
2360.000000	73.137	-165.9197
2400.000000	73.105	-166.6957
2430.000000	73.079	-167.2307
2470.000000	73.047	-167.9299
2500.000000	73.025	-168.4272
2540.000000	72.995	-169.0351
2580.000000	72.957	-169.5899
2620.000000	72.916	-170.0813
2650.000000	72.888	-170.4433
2690.000000	72.856	-170.8836
2720.000000	72.831	-171.1831
2760.000000	72.795	-171.5469
2800.000000	72.760	-171.8464
2850.000000	72.723	-172.1977
2900.000000	72.696	-172.4892
2950.000000	72.672	-172.7376
3000.000000	72.652	-172.9166
3040.000000	72.646	-173.0560
3070.000000	72.648	-173.1561
3110.000000	72.655	-173.2807
3150.000000	72.663	-173.3869
3200.000000	72.676	-173.4878
3250.000000	72.704	-173.6332
3300.000000	72.749	-173.8123
3350.000000	72.801	-173.9964
3400.000000	72.856	-174.2224
3450.000000	72.919	-174.4865
3500.000000	72.991	-174.8217
3550.000000	73.076	-175.2219
3600.000000	73.168	-175.7199
3650.000000	73.261	-176.2882
3700.000000	73.350	-176.9340
3750.000000	73.445	-177.6994
3820.000000	73.584	-178.9850
3870.000000	73.680	179.9511
3950.000000	73.808	178.0400
4000.000000	73.881	176.6522
4060.000000	73.953	174.8316
4120.000000	73.997	172.8433
4180.000000	74.008	170.7168
4250.000000	73.981	168.0940
4310.000000	73.923	165.7532
4370.000000	73.826	163.3998
4440.000000	73.662	160.6785
4500.000000	73.475	158.4441
4550.000000	73.290	156.6780
4620.000000	72.999	154.4026
4680.000000	72.724	152.6439
4750.000000	72.376	150.8615
4820.000000	71.994	149.4054
4870.000000	71.708	148.5613
4940.000000	71.300	147.6525
5000.000000	70.948	147.0972
5080.000000	70.467	146.6803
5150.000000	70.043	146.6461
5220.000000	69.622	146.8970
5300.000000	69.168	147.4534
5380.000000	68.752	148.1627
5450.000000	68.399	148.8956
5520.000000	68.047	149.7629
5600.000000	67.658	150.9242
5700.000000	67.207	152.6105
5800.000000	66.791	154.5192
5900.000000	66.409	156.6354
6000.000000	66.059	158.8680
6080.000000	65.806	160.7561
6150.000000	65.604	162.4568
6220.000000	65.425	164.1853
6300.000000	65.256	166.1933
6400.000000	65.119	168.7264
6500.000000	65.029	171.2896
6600.000000	64.972	173.8298
6700.000000	64.952	176.3296
6800.000000	64.949	178.7941
6900.000000	64.957	-178.7846
7000.000000	64.980	-176.3634
7100.000000	65.037	-173.9151
7200.000000	65.129	-171.4635
7300.000000	65.251	-169.0515
7400.000000	65.402	-166.6639
7500.000000	65.595	-164.3311
7620.000000	65.892	-161.7516
7750.000000	66.290	-159.3076
7880.000000	66.754	-157.3916
8000.000000	67.204	-156.1956
8120.000000	67.603	-155.6564
8250.000000	68.031	-155.9449
8380.000000	68.451	-157.2717
8500.000000	68.774	-159.4346
8620.000000	68.990	-162.4330
8750.000000	69.064	-166.3828
8850.000000	68.984	-169.6255
9000.000000	68.637	-174.2276
9120.000000	68.189	-177.2390
9250.000000	67.584	-179.4950
9380.000000	66.905	179.4214
9500.000000	66.261	179.4461
9620.000000	65.638	-179.6342
9750.000000	65.004	-177.6673
9880.000000	64.433	-174.7918
10000.000000	63.993	-171.3228
10150.000000	63.637	-165.9048
10300.000000	63.527	-159.3432
10440.000000	63.730	-152.3760
10600.000000	64.445	-144.3118
10750.000000	65.622	-138.1239
10900.000000	67.146	-134.8444
11060.000000	68.867	-135.3021
11200.000000	70.259	-138.6390
11380.000000	71.821	-145.9156
11500.000000	72.734	-152.5697
11720.000000	74.012	-169.6158
11800.000000	74.233	-177.5047
12060.000000	73.471	155.4439
12200.000000	72.210	144.2678
12410.000000	69.852	134.5709
12500.000000	68.821	132.5155
12650.000000	67.173	131.0200
12800.000000	65.663	131.2431
13150.000000	62.723	135.5785
13200.000000	62.360	136.4745
13400.000000	61.035	140.4907
13600.000000	59.903	144.9318
13800.000000	58.949	149.6190
14000.000000	58.143	154.4478
14300.000000	57.234	161.9879
14500.000000	56.939	166.5494
14750.000000	56.797	169.9783
15000.000000	56.701	171.1379
15250.000000	56.629	167.9288
15500.000000	55.083	157.6324
15750.000000	51.705	176.2292
16000.000000	52.932	-169.9747
16250.000000	53.833	-169.0899
16500.000000	54.216	-169.4054
16750.000000	54.322	-169.5294
17000.000000	54.221	-169.1505
17250.000000	54.026	-167.1435
17500.000000	53.939	-164.5348
17750.000000	53.876	-161.4911
18000.000000	53.942	-158.0617
18250.000000	54.119	-155.1285
18500.000000	54.375	-152.5363
18750.000000	54.770	-151.0704
19000.000000	55.201	-151.9160
19250.000000	55.504	-155.8510
19500.000000	55.374	-162.9756
19750.000000	54.531	-171.7278
