* Measurement data measured by REW V5.20.13
* Source: C:\Users\marcu\OneDrive\Desktop\audio_db\XENNS UP SF W1 L.txt
* Format: Comma/Tab/Space delimited data
* Dated: May 29, 2023 8:27:36 AM
* REW Settings:
*  C-weighting compensation: Off
*  Target level: 75.0 dB
* Note: ; Measurement imported from C:\Users\marcu\OneDrive\Desktop\audio_db\XENNS UP SF W1 L.txt Format: Comma/Tab/Space delimited data 54613 values loaded, 0 Hz to 20,000 Hz 
* Measurement: XENNS UP SF W1 L
* Smoothing: None
* Frequency Step: 1/48 octave
* Start Frequency: 1.000 Hz
*
* Freq(Hz)	SPL(dB)	Phase(degrees)
1.000000	60.904	150.3175
1.015000	60.852	150.0186
1.030000	60.800	149.7288
1.044000	60.751	149.4670
1.060000	60.695	149.1784
1.075000	60.643	148.9186
1.090000	60.592	148.6696
1.106000	60.537	148.4158
1.120000	60.487	148.2009
1.138000	60.423	147.9339
1.150000	60.379	147.7618
1.172000	60.297	147.4587
1.180000	60.266	147.3526
1.206000	60.167	147.0228
1.220000	60.113	146.8551
1.241000	60.032	146.6169
1.250000	59.998	146.5197
1.265000	59.940	146.3645
1.280000	59.882	146.2177
1.315000	59.749	145.9091
1.320000	59.730	145.8689
1.340000	59.656	145.7184
1.360000	59.583	145.5840
1.380000	59.512	145.4663
1.400000	59.443	145.3656
1.430000	59.345	145.2469
1.450000	59.284	145.1898
1.475000	59.211	145.1452
1.500000	59.139	145.1408
1.525000	59.067	145.1757
1.550000	58.997	145.2458
1.575000	58.928	145.3474
1.600000	58.861	145.4764
1.625000	58.797	145.6288
1.650000	58.737	145.8008
1.675000	58.681	145.9882
1.700000	58.629	146.1873
1.725000	58.583	146.3939
1.750000	58.542	146.6042
1.775000	58.508	146.8143
1.800000	58.482	147.0201
1.825000	58.462	147.2176
1.850000	58.451	147.4158
1.875000	58.446	147.6407
1.900000	58.448	147.8881
1.925000	58.456	148.1529
1.950000	58.469	148.4298
1.975000	58.489	148.7136
2.000000	58.513	148.9990
2.030000	58.549	149.3361
2.060000	58.591	149.6589
2.090000	58.640	149.9582
2.120000	58.694	150.2250
2.140000	58.734	150.3804
2.180000	58.819	150.6247
2.200000	58.864	150.7085
2.240000	58.967	150.8304
2.270000	59.054	150.8919
2.300000	59.150	150.9269
2.330000	59.252	150.9344
2.360000	59.360	150.9135
2.400000	59.510	150.8400
2.430000	59.626	150.7495
2.470000	59.784	150.5797
2.500000	59.903	150.4145
2.540000	60.060	150.1420
2.580000	60.213	149.8063
2.620000	60.371	149.3954
2.650000	60.493	149.0406
2.690000	60.658	148.5121
2.720000	60.783	148.0789
2.760000	60.951	147.4590
2.800000	61.119	146.7986
2.850000	61.327	145.9291
2.900000	61.530	145.0263
2.950000	61.726	144.1004
3.000000	61.919	143.1098
3.040000	62.071	142.2710
3.070000	62.185	141.6201
3.110000	62.335	140.7294
3.150000	62.482	139.8196
3.200000	62.663	138.6675
3.250000	62.840	137.5131
3.300000	63.012	136.3714
3.350000	63.179	135.2220
3.400000	63.342	134.0495
3.450000	63.501	132.8635
3.500000	63.655	131.6731
3.550000	63.807	130.4878
3.600000	63.955	129.3167
3.650000	64.100	128.1694
3.700000	64.242	127.0453
3.750000	64.380	125.9280
3.820000	64.567	124.3810
3.870000	64.697	123.2938
3.950000	64.901	121.5959
4.000000	65.026	120.5670
4.060000	65.175	119.3697
4.120000	65.321	118.2064
4.180000	65.464	117.0752
4.250000	65.627	115.7954
4.310000	65.766	114.7320
4.370000	65.904	113.6992
4.440000	66.066	112.5349
4.500000	66.203	111.5763
4.550000	66.316	110.8023
4.620000	66.474	109.7509
4.680000	66.609	108.8745
4.750000	66.767	107.8744
4.820000	66.925	106.9007
4.870000	67.038	106.2274
4.940000	67.197	105.3101
5.000000	67.332	104.5420
5.080000	67.511	103.5351
5.150000	67.667	102.6629
5.220000	67.823	101.8068
5.300000	68.000	100.8489
5.380000	68.175	99.9072
5.450000	68.326	99.0922
5.520000	68.474	98.2821
5.600000	68.642	97.3652
5.700000	68.846	96.2350
5.800000	69.045	95.1233
5.900000	69.237	94.0307
6.000000	69.421	92.9543
6.080000	69.564	92.1072
6.150000	69.686	91.3788
6.220000	69.804	90.6643
6.300000	69.934	89.8642
6.400000	70.092	88.8863
6.500000	70.242	87.9354
6.600000	70.388	87.0139
6.700000	70.527	86.1235
6.800000	70.660	85.2623
6.900000	70.789	84.4266
7.000000	70.914	83.6141
7.100000	71.035	82.8291
7.200000	71.152	82.0671
7.300000	71.265	81.3215
7.400000	71.375	80.5899
7.500000	71.482	79.8764
7.620000	71.606	79.0378
7.750000	71.734	78.1425
7.880000	71.856	77.2639
8.000000	71.963	76.4670
8.120000	72.065	75.6820
8.250000	72.170	74.8448
8.380000	72.269	74.0243
8.500000	72.356	73.2839
8.620000	72.438	72.5588
8.750000	72.522	71.7911
8.850000	72.585	71.2140
9.000000	72.674	70.3713
9.120000	72.743	69.7116
9.250000	72.816	69.0091
9.380000	72.888	68.3213
9.500000	72.953	67.6905
9.620000	73.018	67.0603
9.750000	73.089	66.3812
9.880000	73.150	65.6980
10.000000	73.193	65.0603
10.150000	73.234	64.2568
10.300000	73.268	63.4449
10.440000	73.292	62.6774
10.600000	73.313	61.7962
10.750000	73.332	60.9694
10.900000	73.347	60.1426
11.060000	73.361	59.2713
11.200000	73.370	58.5166
11.380000	73.381	57.5624
11.500000	73.386	56.9382
11.720000	73.396	55.8160
11.800000	73.399	55.4152
12.060000	73.410	54.1376
12.200000	73.415	53.4629
12.410000	73.425	52.4686
12.500000	73.435	52.0487
12.650000	73.460	51.3568
12.800000	73.489	50.6770
13.150000	73.555	49.1426
13.200000	73.564	48.9301
13.400000	73.601	48.0977
13.600000	73.637	47.2927
13.800000	73.672	46.5161
14.000000	73.708	45.7624
14.300000	73.762	44.6719
14.500000	73.797	43.9662
14.750000	73.839	43.1066
15.000000	73.878	42.2717
15.250000	73.914	41.4647
15.500000	73.946	40.6873
15.750000	73.976	39.9394
16.000000	74.007	39.2182
16.250000	74.041	38.5160
16.500000	74.075	37.8285
16.750000	74.106	37.1497
17.000000	74.134	36.4792
17.250000	74.157	35.8186
17.500000	74.177	35.1709
17.750000	74.194	34.5395
18.000000	74.209	33.9229
18.250000	74.223	33.3195
18.500000	74.236	32.7216
18.750000	74.248	32.1251
19.000000	74.259	31.5265
19.250000	74.268	30.9271
19.500000	74.274	30.3329
19.750000	74.279	29.7488
20.000000	74.282	29.1838
20.299999	74.287	28.5326
20.600000	74.295	27.9078
20.900000	74.305	27.3000
21.200001	74.319	26.6968
21.400000	74.330	26.2928
21.799999	74.351	25.4825
22.000000	74.361	25.0790
22.400000	74.381	24.2835
22.700001	74.395	23.6975
23.000000	74.410	23.1136
23.299999	74.424	22.5224
23.600000	74.434	21.9231
24.000000	74.437	21.1289
24.299999	74.430	20.5663
24.700001	74.413	19.9022
25.000000	74.400	19.4815
25.400000	74.389	19.0033
25.799999	74.393	18.5553
26.200001	74.405	18.0721
26.500000	74.415	17.6725
26.900000	74.425	17.1052
27.200001	74.429	16.6742
27.600000	74.433	16.1082
28.000000	74.438	15.5449
28.500000	74.442	14.8179
29.000000	74.440	14.0759
29.500000	74.429	13.3749
30.000000	74.420	12.7451
30.400000	74.418	12.2644
30.700001	74.419	11.8958
31.100000	74.419	11.3837
31.500000	74.414	10.8646
32.000000	74.400	10.2505
32.500000	74.383	9.6999
33.000000	74.369	9.1897
33.500000	74.358	8.6852
34.000000	74.347	8.1751
34.500000	74.334	7.6670
35.000000	74.320	7.1675
35.500000	74.306	6.6747
36.000000	74.292	6.1806
36.500000	74.277	5.6776
37.000000	74.259	5.1741
37.500000	74.236	4.7016
38.200001	74.208	4.1318
38.700001	74.199	3.7467
39.500000	74.189	3.0251
40.000000	74.173	2.5430
40.599998	74.143	2.0387
41.200001	74.118	1.6198
41.799999	74.099	1.2017
42.500000	74.074	0.6986
43.099998	74.050	0.3180
43.700001	74.034	-0.0466
44.400002	74.019	-0.5457
45.000000	73.996	-1.0062
45.500000	73.971	-1.3473
46.200001	73.942	-1.7613
46.799999	73.923	-2.1231
47.500000	73.901	-2.5737
48.200001	73.874	-3.0129
48.700001	73.855	-3.3163
49.400002	73.829	-3.7359
50.000000	73.804	-4.0806
50.799999	73.774	-4.5223
51.500000	73.749	-4.9169
52.200001	73.721	-5.3107
53.000000	73.687	-5.7284
53.799999	73.657	-6.1150
54.500000	73.633	-6.4607
55.200001	73.607	-6.8262
56.000000	73.570	-7.2207
57.000000	73.526	-7.6644
58.000000	73.479	-8.1096
59.000000	73.437	-8.4843
60.000000	73.406	-8.9558
60.799999	73.367	-9.3671
61.500000	73.330	-9.6364
62.200001	73.303	-9.8857
63.000000	73.274	-10.2134
64.000000	73.228	-10.5752
65.000000	73.187	-10.8932
66.000000	73.146	-11.2118
67.000000	73.106	-11.5419
68.000000	73.056	-11.8994
69.000000	73.005	-12.1758
70.000000	72.966	-12.4611
71.000000	72.924	-12.7877
72.000000	72.881	-13.0926
73.000000	72.838	-13.3621
74.000000	72.801	-13.6275
75.000000	72.756	-13.9256
76.199997	72.707	-14.1907
77.500000	72.636	-14.7067
78.800003	72.553	-14.7443
80.000000	72.550	-15.0832
81.199997	72.480	-15.5584
82.500000	72.414	-15.7431
83.800003	72.368	-15.8131
85.000000	72.351	-16.0642
86.199997	72.286	-16.3282
87.500000	72.239	-16.4868
88.500000	72.192	-16.7254
90.000000	72.125	-16.9792
91.199997	72.076	-17.2512
92.500000	72.024	-17.4962
93.800003	71.976	-17.7099
95.000000	71.932	-17.8571
96.199997	71.893	-17.9812
97.500000	71.846	-18.1950
98.800003	71.783	-18.3829
100.000000	71.728	-18.4978
101.500000	71.673	-18.6602
103.000000	71.616	-18.8693
104.400002	71.562	-18.9507
106.000000	71.513	-19.0837
107.500000	71.454	-19.1791
109.000000	71.410	-19.3186
110.599998	71.344	-19.5163
112.000000	71.299	-19.6504
113.800003	71.221	-19.8090
115.000000	71.178	-19.7716
117.199997	71.107	-19.8160
118.000000	71.079	-19.8070
120.599998	70.995	-19.9467
122.000000	70.945	-19.9858
124.099998	70.889	-20.1029
125.000000	70.864	-20.1640
126.500000	70.822	-20.2085
128.000000	70.788	-20.2243
131.500000	70.697	-20.3641
132.000000	70.681	-20.3794
134.000000	70.617	-20.4505
136.000000	70.564	-20.4765
138.000000	70.506	-20.4965
140.000000	70.452	-20.4369
143.000000	70.390	-20.2751
145.000000	70.355	-20.2746
147.500000	70.299	-20.3059
150.000000	70.246	-20.3034
152.500000	70.195	-20.2767
155.000000	70.141	-20.2370
157.500000	70.090	-20.2103
160.000000	70.042	-20.2068
162.500000	69.985	-20.1653
165.000000	69.928	-20.0908
167.500000	69.865	-20.0182
170.000000	69.807	-19.9600
172.500000	69.755	-19.9109
175.000000	69.703	-19.8798
177.500000	69.645	-19.8272
180.000000	69.590	-19.7949
182.500000	69.534	-19.7602
185.000000	69.479	-19.7136
187.500000	69.421	-19.6572
190.000000	69.363	-19.5851
192.500000	69.308	-19.5116
195.000000	69.255	-19.4426
197.500000	69.205	-19.3690
200.000000	69.155	-19.2741
203.000000	69.099	-19.1363
206.000000	69.044	-19.0109
209.000000	68.990	-18.8980
212.000000	68.939	-18.7797
214.000000	68.903	-18.6976
218.000000	68.837	-18.5037
220.000000	68.806	-18.4004
224.000000	68.738	-18.1916
227.000000	68.690	-18.0369
230.000000	68.643	-17.8830
233.000000	68.596	-17.7017
236.000000	68.550	-17.5127
240.000000	68.486	-17.2204
243.000000	68.441	-16.9920
247.000000	68.389	-16.7052
250.000000	68.355	-16.4702
254.000000	68.318	-16.1492
258.000000	68.281	-15.8991
262.000000	68.241	-15.6573
265.000000	68.210	-15.4665
269.000000	68.168	-15.1845
272.000000	68.140	-14.9473
276.000000	68.107	-14.6161
280.000000	68.086	-14.2891
285.000000	68.069	-13.9570
290.000000	68.049	-13.7231
295.000000	68.020	-13.5303
300.000000	67.985	-13.3539
304.000000	67.955	-13.1938
307.000000	67.931	-13.0628
311.000000	67.900	-12.8985
315.000000	67.870	-12.6951
320.000000	67.830	-12.4348
325.000000	67.791	-12.1847
330.000000	67.757	-11.9167
335.000000	67.718	-11.6502
340.000000	67.677	-11.3886
345.000000	67.643	-11.0997
350.000000	67.606	-10.7986
355.000000	67.567	-10.4720
360.000000	67.535	-10.1366
365.000000	67.503	-9.7725
370.000000	67.474	-9.3894
375.000000	67.455	-9.0104
382.000000	67.438	-8.5227
387.000000	67.430	-8.1970
395.000000	67.419	-7.7274
400.000000	67.413	-7.4671
406.000000	67.405	-7.1856
412.000000	67.396	-6.9364
418.000000	67.385	-6.7214
425.000000	67.362	-6.4565
431.000000	67.344	-6.2426
437.000000	67.323	-6.0000
444.000000	67.296	-5.7275
450.000000	67.270	-5.4648
455.000000	67.250	-5.2262
462.000000	67.221	-4.9148
468.000000	67.200	-4.6151
475.000000	67.176	-4.2745
482.000000	67.150	-3.9338
487.000000	67.130	-3.6893
494.000000	67.104	-3.3289
500.000000	67.083	-3.0223
508.000000	67.058	-2.6150
515.000000	67.037	-2.2453
522.000000	67.018	-1.8563
530.000000	66.997	-1.4163
538.000000	66.975	-0.9577
545.000000	66.960	-0.5382
552.000000	66.947	-0.1237
560.000000	66.934	0.3585
570.000000	66.926	0.9785
580.000000	66.922	1.5632
590.000000	66.923	2.1131
600.000000	66.921	2.6264
608.000000	66.921	3.0624
615.000000	66.918	3.4447
622.000000	66.913	3.8165
630.000000	66.909	4.2419
640.000000	66.910	4.7756
650.000000	66.909	5.3140
660.000000	66.909	5.8766
670.000000	66.913	6.4243
680.000000	66.917	6.9678
690.000000	66.923	7.5273
700.000000	66.929	8.0981
710.000000	66.938	8.6670
720.000000	66.950	9.2337
730.000000	66.964	9.7981
740.000000	66.979	10.3738
750.000000	66.995	10.9632
762.000000	67.018	11.6814
775.000000	67.046	12.4515
788.000000	67.078	13.2073
800.000000	67.110	13.9133
812.000000	67.142	14.6341
825.000000	67.175	15.3976
838.000000	67.214	16.1699
850.000000	67.259	16.8599
862.000000	67.304	17.5469
875.000000	67.356	18.2803
885.000000	67.401	18.8399
900.000000	67.476	19.6475
912.000000	67.538	20.2661
925.000000	67.612	20.9266
938.000000	67.692	21.5512
950.000000	67.767	22.1104
962.000000	67.846	22.6503
975.000000	67.934	23.1947
988.000000	68.026	23.6782
1000.000000	68.115	24.1146
1015.000000	68.239	24.6020
1030.000000	68.367	25.0442
1044.000000	68.489	25.4178
1060.000000	68.626	25.7921
1075.000000	68.755	26.0917
1090.000000	68.881	26.3454
1106.000000	69.012	26.5642
1120.000000	69.127	26.7186
1138.000000	69.268	26.8715
1150.000000	69.359	26.9521
1172.000000	69.521	27.0583
1180.000000	69.577	27.0872
1206.000000	69.755	27.1153
1220.000000	69.844	27.1085
1241.000000	69.972	27.0989
1250.000000	70.019	27.0849
1265.000000	70.083	27.0615
1280.000000	70.137	27.0342
1315.000000	70.256	26.9613
1320.000000	70.271	26.9511
1340.000000	70.335	26.9007
1360.000000	70.395	26.8639
1380.000000	70.451	26.8355
1400.000000	70.506	26.8087
1430.000000	70.587	26.7843
1450.000000	70.639	26.7909
1475.000000	70.705	26.7828
1500.000000	70.771	26.7903
1525.000000	70.835	26.7897
1550.000000	70.902	26.8042
1575.000000	70.971	26.8132
1600.000000	71.047	26.8196
1625.000000	71.149	26.8175
1650.000000	71.259	26.8058
1675.000000	71.371	26.7800
1700.000000	71.484	26.7430
1725.000000	71.598	26.6889
1750.000000	71.714	26.6201
1775.000000	71.831	26.5212
1800.000000	71.949	26.4081
1825.000000	72.067	26.2666
1850.000000	72.186	26.0969
1875.000000	72.303	25.9017
1900.000000	72.422	25.6797
1925.000000	72.543	25.4277
1950.000000	72.663	25.1328
1975.000000	72.779	24.8114
2000.000000	72.894	24.4661
2030.000000	73.023	24.0045
2060.000000	73.151	23.4904
2090.000000	73.276	22.9453
2120.000000	73.398	22.3474
2140.000000	73.476	21.9262
2180.000000	73.626	21.0303
2200.000000	73.698	20.5570
2240.000000	73.841	19.5610
2270.000000	73.944	18.7596
2300.000000	74.042	17.9146
2330.000000	74.135	17.0311
2360.000000	74.223	16.0980
2400.000000	74.337	14.7525
2430.000000	74.416	13.6622
2470.000000	74.506	12.0948
2500.000000	74.557	10.8206
2540.000000	74.596	9.0240
2580.000000	74.594	7.1625
2620.000000	74.547	5.3259
2650.000000	74.483	4.0348
2690.000000	74.362	2.5133
2720.000000	74.256	1.5581
2760.000000	74.104	0.5299
2800.000000	73.951	-0.2608
2850.000000	73.765	-0.9748
2900.000000	73.589	-1.4402
2950.000000	73.427	-1.7258
3000.000000	73.282	-1.8219
3040.000000	73.178	-1.7859
3070.000000	73.109	-1.7189
3110.000000	73.027	-1.5755
3150.000000	72.959	-1.3806
3200.000000	72.890	-1.0873
3250.000000	72.843	-0.7727
3300.000000	72.813	-0.4509
3350.000000	72.799	-0.1162
3400.000000	72.801	0.1830
3450.000000	72.817	0.4510
3500.000000	72.843	0.6826
3550.000000	72.882	0.8540
3600.000000	72.931	0.9761
3650.000000	72.984	1.0504
3700.000000	73.041	1.0836
3750.000000	73.103	1.0779
3820.000000	73.198	1.0370
3870.000000	73.274	0.9851
3950.000000	73.414	0.8776
4000.000000	73.518	0.7613
4060.000000	73.660	0.5484
4120.000000	73.826	0.1744
4180.000000	74.016	-0.4396
4250.000000	74.250	-1.5543
4310.000000	74.446	-2.9291
4370.000000	74.620	-4.6925
4440.000000	74.773	-7.2154
4500.000000	74.840	-9.6671
4550.000000	74.843	-11.8185
4620.000000	74.763	-14.8754
4680.000000	74.619	-17.3799
4750.000000	74.371	-20.0135
4820.000000	74.052	-22.1923
4870.000000	73.798	-23.4284
4940.000000	73.423	-24.6800
5000.000000	73.091	-25.3195
5080.000000	72.648	-25.6456
5150.000000	72.285	-25.5004
5220.000000	71.955	-25.0609
5300.000000	71.624	-24.3044
5380.000000	71.342	-23.3822
5450.000000	71.133	-22.5013
5520.000000	70.954	-21.6207
5600.000000	70.783	-20.6809
5700.000000	70.601	-19.6057
5800.000000	70.434	-18.7207
5900.000000	70.263	-17.9520
6000.000000	70.077	-17.2154
6080.000000	69.914	-16.5779
6150.000000	69.764	-15.9267
6220.000000	69.609	-15.1710
6300.000000	69.445	-14.1461
6400.000000	69.303	-12.6209
6500.000000	69.201	-10.8325
6600.000000	69.133	-8.7976
6700.000000	69.103	-6.5659
6800.000000	69.126	-4.2062
6900.000000	69.206	-1.7429
7000.000000	69.349	0.7414
7100.000000	69.564	3.1671
7200.000000	69.856	5.3787
7300.000000	70.218	7.2306
7400.000000	70.641	8.6236
7500.000000	71.114	9.4360
7620.000000	71.724	9.4513
7750.000000	72.382	8.0072
7880.000000	72.941	4.9675
8000.000000	73.254	0.9646
8120.000000	73.246	-3.6407
8250.000000	72.923	-8.4323
8380.000000	72.353	-12.1562
8500.000000	71.695	-14.2661
8620.000000	70.996	-15.0435
8750.000000	70.263	-14.5945
8850.000000	69.749	-13.5118
9000.000000	69.074	-11.0012
9120.000000	68.628	-8.3073
9250.000000	68.265	-4.8693
9380.000000	68.044	-1.0900
9500.000000	67.971	2.4968
9620.000000	68.029	6.0443
9750.000000	68.243	9.6483
9880.000000	68.622	12.7394
10000.000000	69.133	14.7993
10150.000000	69.987	15.5988
10300.000000	70.901	13.4372
10440.000000	71.524	8.2526
10600.000000	71.593	0.2973
10750.000000	71.009	-5.5702
10900.000000	70.158	-7.8114
11060.000000	69.372	-7.0232
11200.000000	68.914	-5.1416
11380.000000	68.580	-2.5686
11500.000000	68.449	-1.1033
11720.000000	68.294	1.0294
11800.000000	68.252	1.6363
12060.000000	68.068	2.9420
12200.000000	67.949	3.9161
12410.000000	67.826	4.5830
12500.000000	67.716	4.6803
12650.000000	67.443	5.0521
12800.000000	67.122	5.9622
13150.000000	66.594	9.9764
13200.000000	66.571	10.5945
13400.000000	66.637	12.4214
13600.000000	66.890	12.1557
13800.000000	67.109	8.5063
14000.000000	66.898	1.5839
14300.000000	65.230	-8.9719
14500.000000	63.464	-11.8560
14750.000000	61.156	-9.8352
15000.000000	59.191	-3.4022
15250.000000	57.800	5.2948
15500.000000	57.075	13.8676
15750.000000	56.862	19.4754
16000.000000	56.752	20.9460
16250.000000	56.467	18.5732
16500.000000	55.671	21.6190
16750.000000	56.764	19.8624
17000.000000	57.212	-7.0452
17250.000000	53.155	-46.1730
17500.000000	44.698	-81.9781
17750.000000	37.422	-151.3380
18000.000000	41.558	169.4891
18250.000000	45.153	165.5792
18500.000000	47.760	167.7169
18750.000000	49.883	168.7796
19000.000000	51.482	166.0070
19250.000000	52.133	159.5073
19500.000000	51.611	153.2101
19750.000000	50.168	151.4226
